time,.header.seq,.header.stamp.secs,.header.stamp.nsecs,.header.frame_id,.orientation.x,.orientation.y,.orientation.z,.orientation.w,.orientation_covariance,.angular_velocity.x,.angular_velocity.y,.angular_velocity.z,.angular_velocity_covariance,.linear_acceleration.x,.linear_acceleration.y,.linear_acceleration.z,.linear_acceleration_covariance
2022/03/09/18:23:55.367227,11848,1646846635,366926439,imu_iphone,0.00172146767186,0.0201097507073,-0.910393394575,0.413251136223,"(0.00872665, 0.0, 0.0, 0.0, 0.00872665, 0.0, 0.0, 0.0, 0.00872665)",-0.000419202260673,0.000706969760358,-0.00188652332872,"(0.000872665, 0.0, 0.0, 0.0, 0.000872665, 0.0, 0.0, 0.0, 0.000872665)",0.0103867746145,-0.0263946969062,-0.128042913079,"(0.003, 0.0, 0.0, 0.0, 0.003, 0.0, 0.0, 0.0, 0.003)"
2022/03/09/18:23:55.415107,11849,1646846635,414536097,imu_iphone,0.0017074431675,0.0200968460213,-0.910400268278,0.413236679081,"(0.00872665, 0.0, 0.0, 0.0, 0.00872665, 0.0, 0.0, 0.0, 0.00872665)",-0.00141189992428,-0.000186999328434,0.000240697991103,"(0.000872665, 0.0, 0.0, 0.0, 0.000872665, 0.0, 0.0, 0.0, 0.000872665)",0.00338747475296,-0.0222646440379,-0.114559818506,"(0.003, 0.0, 0.0, 0.0, 0.003, 0.0, 0.0, 0.0, 0.003)"
2022/03/09/18:23:55.425040,11850,1646846635,424533128,imu_iphone,0.00170235817541,0.0200964476675,-0.910399706301,0.41323795752,"(0.00872665, 0.0, 0.0, 0.0, 0.00872665, 0.0, 0.0, 0.0, 0.00872665)",0.00171432318166,0.00114548485726,0.000499338377267,"(0.000872665, 0.0, 0.0, 0.0, 0.000872665, 0.0, 0.0, 0.0, 0.000872665)",-0.00121899828315,-0.0177178491466,-0.108870477676,"(0.003, 0.0, 0.0, 0.0, 0.003, 0.0, 0.0, 0.0, 0.003)"
2022/03/09/18:23:55.455736,11851,1646846635,454830562,imu_iphone,0.00169895685803,0.0200964443828,-0.910399188027,0.413239113479,"(0.00872665, 0.0, 0.0, 0.0, 0.00872665, 0.0, 0.0, 0.0, 0.00872665)",0.000763669610023,0.000271720811725,0.000704523641616,"(0.000872665, 0.0, 0.0, 0.0, 0.000872665, 0.0, 0.0, 0.0, 0.000872665)",-0.00972399272025,-0.0215204213932,-0.123539972305,"(0.003, 0.0, 0.0, 0.0, 0.003, 0.0, 0.0, 0.0, 0.003)"
2022/03/09/18:23:55.488191,11852,1646846635,485854194,imu_iphone,0.00169645789279,0.0200991884583,-0.910399267938,0.413238814238,"(0.00872665, 0.0, 0.0, 0.0, 0.00872665, 0.0, 0.0, 0.0, 0.00872665)",0.00210983585566,-0.00167339108884,4.80795279145e-05,"(0.000872665, 0.0, 0.0, 0.0, 0.000872665, 0.0, 0.0, 0.0, 0.000872665)",-0.00246960807592,-0.0176510081626,-0.114560403228,"(0.003, 0.0, 0.0, 0.0, 0.003, 0.0, 0.0, 0.0, 0.003)"
2022/03/09/18:23:55.520436,11853,1646846635,516816105,imu_iphone,0.00168167342119,0.0201031844388,-0.910396040182,0.413245791233,"(0.00872665, 0.0, 0.0, 0.0, 0.00872665, 0.0, 0.0, 0.0, 0.00872665)",-0.00363940838724,-0.00018554367125,-0.000706959981471,"(0.000872665, 0.0, 0.0, 0.0, 0.000872665, 0.0, 0.0, 0.0, 0.000872665)",0.0068511460349,-0.0286576607265,-0.124891263843,"(0.003, 0.0, 0.0, 0.0, 0.003, 0.0, 0.0, 0.0, 0.003)"
2022/03/09/18:23:55.544362,11854,1646846635,543790783,imu_iphone,0.0016714974846,0.0200895036233,-0.910392015278,0.413255364707,"(0.00872665, 0.0, 0.0, 0.0, 0.00872665, 0.0, 0.0, 0.0, 0.00872665)",0.000498733017594,-0.000549671240151,-0.000162634067237,"(0.000872665, 0.0, 0.0, 0.0, 0.000872665, 0.0, 0.0, 0.0, 0.000872665)",0.000250772461295,-0.0371795755439,-0.109162838459,"(0.003, 0.0, 0.0, 0.0, 0.003, 0.0, 0.0, 0.0, 0.003)"
2022/03/09/18:23:55.575898,11855,1646846635,573859152,imu_iphone,0.00166030176965,0.0200788448801,-0.910389844172,0.413260710709,"(0.00872665, 0.0, 0.0, 0.0, 0.00872665, 0.0, 0.0, 0.0, 0.00872665)",0.00132710812613,-8.96146520972e-05,0.00111754098907,"(0.000872665, 0.0, 0.0, 0.0, 0.000872665, 0.0, 0.0, 0.0, 0.000872665)",0.00748487457633,-0.0367154893465,-0.118733561039,"(0.003, 0.0, 0.0, 0.0, 0.003, 0.0, 0.0, 0.0, 0.003)"
2022/03/09/18:23:55.605766,11856,1646846635,605240698,imu_iphone,0.00166660370489,0.0200803248669,-0.910392539009,0.413254676807,"(0.00872665, 0.0, 0.0, 0.0, 0.00872665, 0.0, 0.0, 0.0, 0.00872665)",5.59538602829e-06,0.00200586393476,0.00131533760577,"(0.000872665, 0.0, 0.0, 0.0, 0.000872665, 0.0, 0.0, 0.0, 0.000872665)",0.000126701854169,-0.0298572170176,-0.129812280536,"(0.003, 0.0, 0.0, 0.0, 0.003, 0.0, 0.0, 0.0, 0.003)"
2022/03/09/18:23:55.634737,11857,1646846635,633244103,imu_iphone,0.00168320960434,0.0200825719999,-0.910395555165,0.413247855702,"(0.00872665, 0.0, 0.0, 0.0, 0.00872665, 0.0, 0.0, 0.0, 0.00872665)",0.000553940422833,-0.00107649713755,-0.000730571802706,"(0.000872665, 0.0, 0.0, 0.0, 0.000872665, 0.0, 0.0, 0.0, 0.000872665)",0.00287770718336,-0.0388256763853,-0.12487547636,"(0.003, 0.0, 0.0, 0.0, 0.003, 0.0, 0.0, 0.0, 0.003)"
2022/03/09/18:23:55.663509,11858,1646846635,663076157,imu_iphone,0.00168181976454,0.0200933153676,-0.910400301487,0.413236882687,"(0.00872665, 0.0, 0.0, 0.0, 0.00872665, 0.0, 0.0, 0.0, 0.00872665)",-1.00517645478e-05,-0.000921289436519,0.000936072785407,"(0.000872665, 0.0, 0.0, 0.0, 0.000872665, 0.0, 0.0, 0.0, 0.000872665)",0.000239004939795,-0.0284390479513,-0.118147670031,"(0.003, 0.0, 0.0, 0.0, 0.003, 0.0, 0.0, 0.0, 0.003)"
2022/03/09/18:23:55.694551,11859,1646846635,692930548,imu_iphone,0.00167821929507,0.0200935070858,-0.910400550207,0.413236340048,"(0.00872665, 0.0, 0.0, 0.0, 0.00872665, 0.0, 0.0, 0.0, 0.00872665)",-2.70595774055e-05,-3.14600765705e-06,-0.000925939530134,"(0.000872665, 0.0, 0.0, 0.0, 0.000872665, 0.0, 0.0, 0.0, 0.000872665)",-0.00571579948068,-0.0288013925962,-0.119794245958,"(0.003, 0.0, 0.0, 0.0, 0.003, 0.0, 0.0, 0.0, 0.003)"
2022/03/09/18:23:55.724427,11860,1646846635,723700875,imu_iphone,0.00169252917563,0.0200925744962,-0.910400763218,0.413235857745,"(0.00872665, 0.0, 0.0, 0.0, 0.00872665, 0.0, 0.0, 0.0, 0.00872665)",-0.00124638527632,-0.000449290499091,0.00315049197525,"(0.000872665, 0.0, 0.0, 0.0, 0.000872665, 0.0, 0.0, 0.0, 0.000872665)",0.00612671256065,-0.0321460547671,-0.118896113634,"(0.003, 0.0, 0.0, 0.0, 0.003, 0.0, 0.0, 0.0, 0.003)"
2022/03/09/18:23:55.752906,11861,1646846635,752411231,imu_iphone,0.00169067948548,0.0200916517221,-0.910397636674,0.41324279821,"(0.00872665, 0.0, 0.0, 0.0, 0.00872665, 0.0, 0.0, 0.0, 0.00872665)",0.000635975971818,0.0010718787089,4.48012724519e-05,"(0.000872665, 0.0, 0.0, 0.0, 0.000872665, 0.0, 0.0, 0.0, 0.000872665)",0.00163309078664,-0.0348783490062,-0.111411092877,"(0.003, 0.0, 0.0, 0.0, 0.003, 0.0, 0.0, 0.0, 0.003)"
2022/03/09/18:23:55.782450,11862,1646846635,782190790,imu_iphone,0.00169958490266,0.0200807365379,-0.91039721169,0.413244228488,"(0.00872665, 0.0, 0.0, 0.0, 0.00872665, 0.0, 0.0, 0.0, 0.00872665)",-0.00128434225917,0.00138748344034,0.00153997074813,"(0.000872665, 0.0, 0.0, 0.0, 0.000872665, 0.0, 0.0, 0.0, 0.000872665)",0.00121603813022,-0.0398966487497,-0.113648237586,"(0.003, 0.0, 0.0, 0.0, 0.003, 0.0, 0.0, 0.0, 0.003)"
2022/03/09/18:23:55.812337,11863,1646846635,812073577,imu_iphone,0.0017086507072,0.0200873322455,-0.910394748943,0.413249296059,"(0.00872665, 0.0, 0.0, 0.0, 0.00872665, 0.0, 0.0, 0.0, 0.00872665)",-0.00116386730224,0.000847322866321,0.000722126569599,"(0.000872665, 0.0, 0.0, 0.0, 0.000872665, 0.0, 0.0, 0.0, 0.000872665)",-0.00862025767565,-0.0329433226213,-0.117096925378,"(0.003, 0.0, 0.0, 0.0, 0.003, 0.0, 0.0, 0.0, 0.003)"
2022/03/09/18:23:55.842736,11864,1646846635,842479976,imu_iphone,0.00169719361224,0.0200739384744,-0.910396994744,0.413245046538,"(0.00872665, 0.0, 0.0, 0.0, 0.00872665, 0.0, 0.0, 0.0, 0.00872665)",0.000650234054774,-0.000400555320084,-0.000478554051369,"(0.000872665, 0.0, 0.0, 0.0, 0.000872665, 0.0, 0.0, 0.0, 0.000872665)",-0.0135556000471,-0.0284681195766,-0.119929901361,"(0.003, 0.0, 0.0, 0.0, 0.003, 0.0, 0.0, 0.0, 0.003)"
2022/03/09/18:23:55.872000,11865,1646846635,871631312,imu_iphone,0.00169873081688,0.0200697880498,-0.91039871499,0.413241452018,"(0.00872665, 0.0, 0.0, 0.0, 0.00872665, 0.0, 0.0, 0.0, 0.00872665)",-0.00227820686996,0.00141855329275,-0.00229645892978,"(0.000872665, 0.0, 0.0, 0.0, 0.000872665, 0.0, 0.0, 0.0, 0.000872665)",0.00761439040303,-0.0232365609147,-0.116034486294,"(0.003, 0.0, 0.0, 0.0, 0.003, 0.0, 0.0, 0.0, 0.003)"
2022/03/09/18:23:55.903356,11866,1646846635,902396538,imu_iphone,0.00170374257952,0.0200678017729,-0.910401135893,0.413236194395,"(0.00872665, 0.0, 0.0, 0.0, 0.00872665, 0.0, 0.0, 0.0, 0.00872665)",0.000964935403317,0.0030221240595,0.000768977683038,"(0.000872665, 0.0, 0.0, 0.0, 0.000872665, 0.0, 0.0, 0.0, 0.000872665)",0.00664126753807,-0.0312483244389,-0.10944701314,"(0.003, 0.0, 0.0, 0.0, 0.003, 0.0, 0.0, 0.0, 0.003)"
2022/03/09/18:23:55.933332,11867,1646846635,931213585,imu_iphone,0.0017032111571,0.0200593265546,-0.91040352799,0.413231338009,"(0.00872665, 0.0, 0.0, 0.0, 0.00872665, 0.0, 0.0, 0.0, 0.00872665)",-0.000999294221401,-0.00119330734015,-0.0023907572031,"(0.000872665, 0.0, 0.0, 0.0, 0.000872665, 0.0, 0.0, 0.0, 0.000872665)",-0.00158788450062,-0.0299811779894,-0.125157896876,"(0.003, 0.0, 0.0, 0.0, 0.003, 0.0, 0.0, 0.0, 0.003)"
2022/03/09/18:23:55.965197,11868,1646846635,964816319,imu_iphone,0.00169456950341,0.0200735256637,-0.910408285707,0.413220201973,"(0.00872665, 0.0, 0.0, 0.0, 0.00872665, 0.0, 0.0, 0.0, 0.00872665)",0.000412346795201,-0.000388867221773,-0.000848386436701,"(0.000872665, 0.0, 0.0, 0.0, 0.000872665, 0.0, 0.0, 0.0, 0.000872665)",-0.00350726958364,-0.0300246483833,-0.109002040029,"(0.003, 0.0, 0.0, 0.0, 0.003, 0.0, 0.0, 0.0, 0.003)"
2022/03/09/18:23:55.990885,11869,1646846635,990585587,imu_iphone,0.00168271344135,0.0200831821353,-0.910409718438,0.413216624599,"(0.00872665, 0.0, 0.0, 0.0, 0.00872665, 0.0, 0.0, 0.0, 0.00872665)",0.000695703551173,-0.000818151049316,0.000243350397795,"(0.000872665, 0.0, 0.0, 0.0, 0.000872665, 0.0, 0.0, 0.0, 0.000872665)",0.000354560539126,-0.0292613491975,-0.113050067425,"(0.003, 0.0, 0.0, 0.0, 0.003, 0.0, 0.0, 0.0, 0.003)"
2022/03/09/18:23:56.021406,11870,1646846636,20553302,imu_iphone,0.00168410907593,0.0200844662593,-0.910411234577,0.413213216085,"(0.00872665, 0.0, 0.0, 0.0, 0.00872665, 0.0, 0.0, 0.0, 0.00872665)",-0.000426978804171,-0.000416413880885,-0.000769396778196,"(0.000872665, 0.0, 0.0, 0.0, 0.000872665, 0.0, 0.0, 0.0, 0.000872665)",0.000217187516391,-0.0314726382494,-0.123230069876,"(0.003, 0.0, 0.0, 0.0, 0.003, 0.0, 0.0, 0.0, 0.003)"
2022/03/09/18:23:56.051925,11871,1646846636,50618001,imu_iphone,0.00168191171417,0.0200770840264,-0.910404344105,0.413228764856,"(0.00872665, 0.0, 0.0, 0.0, 0.00872665, 0.0, 0.0, 0.0, 0.00872665)",0.000795861706138,-0.00027871876955,0.00118063483387,"(0.000872665, 0.0, 0.0, 0.0, 0.000872665, 0.0, 0.0, 0.0, 0.000872665)",0.00249493382871,-0.0275242327899,-0.113494455814,"(0.003, 0.0, 0.0, 0.0, 0.003, 0.0, 0.0, 0.0, 0.003)"
2022/03/09/18:23:56.086589,11872,1646846636,83622788,imu_iphone,0.00168097074193,0.0200691305606,-0.910394346299,0.413251180958,"(0.00872665, 0.0, 0.0, 0.0, 0.00872665, 0.0, 0.0, 0.0, 0.00872665)",-0.00108083616942,-0.00152557902038,0.00135581428185,"(0.000872665, 0.0, 0.0, 0.0, 0.000872665, 0.0, 0.0, 0.0, 0.000872665)",0.00190674047917,-0.0278964263387,-0.116332109571,"(0.003, 0.0, 0.0, 0.0, 0.003, 0.0, 0.0, 0.0, 0.003)"
2022/03/09/18:23:56.111147,11873,1646846636,110097518,imu_iphone,0.00167217583061,0.0200728482919,-0.910394762201,0.413250119838,"(0.00872665, 0.0, 0.0, 0.0, 0.00872665, 0.0, 0.0, 0.0, 0.00872665)",-0.0016277814284,0.000787731260061,0.00105693750083,"(0.000872665, 0.0, 0.0, 0.0, 0.000872665, 0.0, 0.0, 0.0, 0.000872665)",0.0081818626821,-0.0310175421461,-0.115885382295,"(0.003, 0.0, 0.0, 0.0, 0.003, 0.0, 0.0, 0.0, 0.003)"
2022/03/09/18:23:56.141034,11874,1646846636,140080069,imu_iphone,0.0016676809637,0.0200601523066,-0.910389403512,0.413262559522,"(0.00872665, 0.0, 0.0, 0.0, 0.00872665, 0.0, 0.0, 0.0, 0.00872665)",0.000391982495785,-0.00149102788419,0.00111721502617,"(0.000872665, 0.0, 0.0, 0.0, 0.000872665, 0.0, 0.0, 0.0, 0.000872665)",-0.000393517613411,-0.0280525835417,-0.114977309704,"(0.003, 0.0, 0.0, 0.0, 0.003, 0.0, 0.0, 0.0, 0.003)"
2022/03/09/18:23:56.173932,11875,1646846636,169636438,imu_iphone,0.00168620180097,0.0200629777193,-0.910385375445,0.413271220659,"(0.00872665, 0.0, 0.0, 0.0, 0.00872665, 0.0, 0.0, 0.0, 0.00872665)",0.000735388603061,0.00202383752912,-0.000157268717885,"(0.000872665, 0.0, 0.0, 0.0, 0.000872665, 0.0, 0.0, 0.0, 0.000872665)",0.00145084038377,-0.0392216242477,-0.122315565348,"(0.003, 0.0, 0.0, 0.0, 0.003, 0.0, 0.0, 0.0, 0.003)"
2022/03/09/18:23:56.208321,11876,1646846636,204792035,imu_iphone,0.00169942661156,0.0200474474869,-0.9103949798,0.413250762315,"(0.00872665, 0.0, 0.0, 0.0, 0.00872665, 0.0, 0.0, 0.0, 0.00872665)",-0.00269618444145,0.000774899497628,-0.00302401091903,"(0.000872665, 0.0, 0.0, 0.0, 0.000872665, 0.0, 0.0, 0.0, 0.000872665)",-0.00821000240743,-0.0281917838193,-0.113023170233,"(0.003, 0.0, 0.0, 0.0, 0.003, 0.0, 0.0, 0.0, 0.003)"
2022/03/09/18:23:56.229714,11877,1646846636,229341529,imu_iphone,0.00170712937962,0.0200503490749,-0.910401462478,0.413236308095,"(0.00872665, 0.0, 0.0, 0.0, 0.00872665, 0.0, 0.0, 0.0, 0.00872665)",-0.00030236504972,-0.000891859643161,-0.000477192457765,"(0.000872665, 0.0, 0.0, 0.0, 0.000872665, 0.0, 0.0, 0.0, 0.000872665)",-0.00537351809442,-0.0221982781403,-0.11931302011,"(0.003, 0.0, 0.0, 0.0, 0.003, 0.0, 0.0, 0.0, 0.003)"
2022/03/09/18:23:56.259231,11878,1646846636,258879168,imu_iphone,0.00171098599954,0.0200635915056,-0.910403058857,0.413232132398,"(0.00872665, 0.0, 0.0, 0.0, 0.00872665, 0.0, 0.0, 0.0, 0.00872665)",0.000582969747484,-0.000127817504108,-0.00247735204175,"(0.000872665, 0.0, 0.0, 0.0, 0.000872665, 0.0, 0.0, 0.0, 0.000872665)",0.000820071995258,-0.0304061792046,-0.112886930108,"(0.003, 0.0, 0.0, 0.0, 0.003, 0.0, 0.0, 0.0, 0.003)"
2022/03/09/18:23:56.289152,11879,1646846636,288820615,imu_iphone,0.00171555637595,0.0200779828424,-0.910409113265,0.413218075542,"(0.00872665, 0.0, 0.0, 0.0, 0.00872665, 0.0, 0.0, 0.0, 0.00872665)",-0.000364647246897,-0.00215516798198,-9.24281775951e-05,"(0.000872665, 0.0, 0.0, 0.0, 0.000872665, 0.0, 0.0, 0.0, 0.000872665)",0.00882673747838,-0.0324585153535,-0.111551426053,"(0.003, 0.0, 0.0, 0.0, 0.003, 0.0, 0.0, 0.0, 0.003)"
2022/03/09/18:23:56.318950,11880,1646846636,318652437,imu_iphone,0.00172612088993,0.0200789987676,-0.910403644101,0.413230031729,"(0.00872665, 0.0, 0.0, 0.0, 0.00872665, 0.0, 0.0, 0.0, 0.00872665)",-0.000890725292265,-0.00120657496154,0.00159322237596,"(0.000872665, 0.0, 0.0, 0.0, 0.000872665, 0.0, 0.0, 0.0, 0.000872665)",-0.00351779457182,-0.0339036364295,-0.119336993694,"(0.003, 0.0, 0.0, 0.0, 0.003, 0.0, 0.0, 0.0, 0.003)"
2022/03/09/18:23:56.351917,11881,1646846636,350767689,imu_iphone,0.00173505228242,0.0200771836992,-0.910400071211,0.413237954002,"(0.00872665, 0.0, 0.0, 0.0, 0.00872665, 0.0, 0.0, 0.0, 0.00872665)",0.00081420596689,-0.000114814378321,0.000183734111488,"(0.000872665, 0.0, 0.0, 0.0, 0.000872665, 0.0, 0.0, 0.0, 0.000872665)",-0.00571992907673,-0.0243254038319,-0.111402322054,"(0.003, 0.0, 0.0, 0.0, 0.003, 0.0, 0.0, 0.0, 0.003)"
2022/03/09/18:23:56.379546,11882,1646846636,378121024,imu_iphone,0.00174432289396,0.0200714756289,-0.910394996059,0.413249373084,"(0.00872665, 0.0, 0.0, 0.0, 0.00872665, 0.0, 0.0, 0.0, 0.00872665)",-0.00233775749803,-0.00247031357139,0.000955780036747,"(0.000872665, 0.0, 0.0, 0.0, 0.000872665, 0.0, 0.0, 0.0, 0.000872665)",-0.00140881352127,-0.0213577226177,-0.119631693363,"(0.003, 0.0, 0.0, 0.0, 0.003, 0.0, 0.0, 0.0, 0.003)"
2022/03/09/18:23:56.408152,11883,1646846636,407862915,imu_iphone,0.00172385448634,0.0200842278768,-0.910389693213,0.413260521473,"(0.00872665, 0.0, 0.0, 0.0, 0.00872665, 0.0, 0.0, 0.0, 0.00872665)",0.000226597301662,0.000154883600771,-0.000835992861539,"(0.000872665, 0.0, 0.0, 0.0, 0.000872665, 0.0, 0.0, 0.0, 0.000872665)",0.000479398593307,-0.031345461309,-0.109610735178,"(0.003, 0.0, 0.0, 0.0, 0.003, 0.0, 0.0, 0.0, 0.003)"
2022/03/09/18:23:56.439657,11884,1646846636,439344724,imu_iphone,0.00172051734085,0.0200737721771,-0.910389721351,0.413260981401,"(0.00872665, 0.0, 0.0, 0.0, 0.00872665, 0.0, 0.0, 0.0, 0.00872665)",0.000904345419258,0.00192942190915,0.000595424324274,"(0.000872665, 0.0, 0.0, 0.0, 0.000872665, 0.0, 0.0, 0.0, 0.000872665)",-0.00162629339844,-0.0296934218891,-0.111698191166,"(0.003, 0.0, 0.0, 0.0, 0.003, 0.0, 0.0, 0.0, 0.003)"
2022/03/09/18:23:56.469306,11885,1646846636,468236477,imu_iphone,0.00173496447774,0.0200760384971,-0.91039493762,0.41324931958,"(0.00872665, 0.0, 0.0, 0.0, 0.00872665, 0.0, 0.0, 0.0, 0.00872665)",0.000683372840285,0.00225465465337,-0.0012210374698,"(0.000872665, 0.0, 0.0, 0.0, 0.000872665, 0.0, 0.0, 0.0, 0.000872665)",-0.00678993299603,-0.0247810481116,-0.116940219998,"(0.003, 0.0, 0.0, 0.0, 0.003, 0.0, 0.0, 0.0, 0.003)"
2022/03/09/18:23:56.498102,11886,1646846636,497059010,imu_iphone,0.0017456131456,0.0200660806575,-0.910405702434,0.413226042521,"(0.00872665, 0.0, 0.0, 0.0, 0.00872665, 0.0, 0.0, 0.0, 0.00872665)",0.0033939727582,0.0035999910906,-0.00174545217305,"(0.000872665, 0.0, 0.0, 0.0, 0.000872665, 0.0, 0.0, 0.0, 0.000872665)",-0.00779755443335,-0.0311169813573,-0.111993475556,"(0.003, 0.0, 0.0, 0.0, 0.003, 0.0, 0.0, 0.0, 0.003)"
2022/03/09/18:23:56.526931,11887,1646846636,526608942,imu_iphone,0.00178263130514,0.0200578662705,-0.910406948759,0.413223537419,"(0.00872665, 0.0, 0.0, 0.0, 0.00872665, 0.0, 0.0, 0.0, 0.00872665)",0.00254669832066,0.00102752074599,0.000814088620245,"(0.000872665, 0.0, 0.0, 0.0, 0.000872665, 0.0, 0.0, 0.0, 0.000872665)",-0.00270532395691,-0.0275295318291,-0.112737826109,"(0.003, 0.0, 0.0, 0.0, 0.003, 0.0, 0.0, 0.0, 0.003)"
2022/03/09/18:23:56.558700,11888,1646846636,558247472,imu_iphone,0.00178566602902,0.0200704719872,-0.910405933906,0.413225148146,"(0.00872665, 0.0, 0.0, 0.0, 0.00872665, 0.0, 0.0, 0.0, 0.00872665)",-0.000274427235126,0.000352852977812,-0.000365392304957,"(0.000872665, 0.0, 0.0, 0.0, 0.000872665, 0.0, 0.0, 0.0, 0.000872665)",-0.00475057035685,-0.0221334105916,-0.110352746844,"(0.003, 0.0, 0.0, 0.0, 0.003, 0.0, 0.0, 0.0, 0.003)"
2022/03/09/18:23:56.587070,11889,1646846636,586726073,imu_iphone,0.00178171168802,0.0200831262665,-0.910409348995,0.413217026278,"(0.00872665, 0.0, 0.0, 0.0, 0.00872665, 0.0, 0.0, 0.0, 0.00872665)",0.00335086276755,-0.00146913621575,-0.000597027596086,"(0.000872665, 0.0, 0.0, 0.0, 0.000872665, 0.0, 0.0, 0.0, 0.000872665)",-0.00104800377041,-0.0372231190279,-0.116050858498,"(0.003, 0.0, 0.0, 0.0, 0.003, 0.0, 0.0, 0.0, 0.003)"
2022/03/09/18:23:56.617436,11890,1646846636,616286142,imu_iphone,0.001803988197,0.0200954590495,-0.910408072736,0.41321914192,"(0.00872665, 0.0, 0.0, 0.0, 0.00872665, 0.0, 0.0, 0.0, 0.00872665)",0.00158892385662,0.000578202307224,0.00109673384577,"(0.000872665, 0.0, 0.0, 0.0, 0.000872665, 0.0, 0.0, 0.0, 0.000872665)",0.00827180016786,-0.0262462141737,-0.115313524604,"(0.003, 0.0, 0.0, 0.0, 0.003, 0.0, 0.0, 0.0, 0.003)"
2022/03/09/18:23:56.647069,11891,1646846636,646014394,imu_iphone,0.00180156488195,0.020101898997,-0.910402797742,0.413230460984,"(0.00872665, 0.0, 0.0, 0.0, 0.00872665, 0.0, 0.0, 0.0, 0.00872665)",-0.00061221793294,-0.00103480555117,0.00224257679656,"(0.000872665, 0.0, 0.0, 0.0, 0.000872665, 0.0, 0.0, 0.0, 0.000872665)",0.00211713060737,-0.0320708449557,-0.1075343889,"(0.003, 0.0, 0.0, 0.0, 0.003, 0.0, 0.0, 0.0, 0.003)"
2022/03/09/18:23:56.682376,11892,1646846636,681072984,imu_iphone,0.00180362659026,0.020095407391,-0.910399832516,0.413237300456,"(0.00872665, 0.0, 0.0, 0.0, 0.00872665, 0.0, 0.0, 0.0, 0.00872665)",-0.0026893960312,-0.00274660624564,-0.000725501682609,"(0.000872665, 0.0, 0.0, 0.0, 0.000872665, 0.0, 0.0, 0.0, 0.000872665)",-0.0044536048919,-0.0353772261366,-0.123247026801,"(0.003, 0.0, 0.0, 0.0, 0.003, 0.0, 0.0, 0.0, 0.003)"
2022/03/09/18:23:56.707186,11893,1646846636,705838325,imu_iphone,0.00181203927173,0.0201068703677,-0.910398802802,0.413238974607,"(0.00872665, 0.0, 0.0, 0.0, 0.00872665, 0.0, 0.0, 0.0, 0.00872665)",-0.00165900215507,0.00115737132728,-0.00015827966854,"(0.000872665, 0.0, 0.0, 0.0, 0.000872665, 0.0, 0.0, 0.0, 0.000872665)",-0.00117401126772,-0.0260023670085,-0.102599338889,"(0.003, 0.0, 0.0, 0.0, 0.003, 0.0, 0.0, 0.0, 0.003)"
2022/03/09/18:23:56.738283,11894,1646846636,736358466,imu_iphone,0.00183541376116,0.020114373227,-0.910401182893,0.413233262737,"(0.00872665, 0.0, 0.0, 0.0, 0.00872665, 0.0, 0.0, 0.0, 0.00872665)",0.00128691224381,0.000516964122653,-0.000835582613945,"(0.000872665, 0.0, 0.0, 0.0, 0.000872665, 0.0, 0.0, 0.0, 0.000872665)",-0.00452154222876,-0.0246280703321,-0.114731726646,"(0.003, 0.0, 0.0, 0.0, 0.003, 0.0, 0.0, 0.0, 0.003)"
2022/03/09/18:23:56.914670,11895,1646846636,914324071,imu_iphone,0.00189718944218,0.020115320612,-0.910405828047,0.413222703643,"(0.00872665, 0.0, 0.0, 0.0, 0.00872665, 0.0, 0.0, 0.0, 0.00872665)",0.000887095928192,0.00100700370967,0.00117672653869,"(0.000872665, 0.0, 0.0, 0.0, 0.000872665, 0.0, 0.0, 0.0, 0.000872665)",-0.00455417700112,-0.0305563064665,-0.113240101933,"(0.003, 0.0, 0.0, 0.0, 0.003, 0.0, 0.0, 0.0, 0.003)"
2022/03/09/18:23:56.944655,11896,1646846636,944180984,imu_iphone,0.00190079728263,0.020118934622,-0.910394333584,0.41324783462,"(0.00872665, 0.0, 0.0, 0.0, 0.00872665, 0.0, 0.0, 0.0, 0.00872665)",-0.00276996567845,-0.00122551992536,0.00175166595727,"(0.000872665, 0.0, 0.0, 0.0, 0.000872665, 0.0, 0.0, 0.0, 0.000872665)",-0.00287781681865,-0.0183282801881,-0.118033649325,"(0.003, 0.0, 0.0, 0.0, 0.003, 0.0, 0.0, 0.0, 0.003)"
2022/03/09/18:23:56.974647,11897,1646846636,974162543,imu_iphone,0.00188210104376,0.0201136250094,-0.910383436041,0.413272185328,"(0.00872665, 0.0, 0.0, 0.0, 0.00872665, 0.0, 0.0, 0.0, 0.00872665)",-0.00178006943315,0.000655310228467,-0.000346421729773,"(0.000872665, 0.0, 0.0, 0.0, 0.000872665, 0.0, 0.0, 0.0, 0.000872665)",0.00226320136338,-0.0245339301601,-0.117878113389,"(0.003, 0.0, 0.0, 0.0, 0.003, 0.0, 0.0, 0.0, 0.003)"
2022/03/09/18:23:57.005157,11898,1646846637,3551091,imu_iphone,0.00187934914243,0.0201094369883,-0.910382890317,0.413273603813,"(0.00872665, 0.0, 0.0, 0.0, 0.00872665, 0.0, 0.0, 0.0, 0.00872665)",0.000446578487754,-0.00237651215866,-0.000952056609094,"(0.000872665, 0.0, 0.0, 0.0, 0.000872665, 0.0, 0.0, 0.0, 0.000872665)",-0.00242992009968,-0.0321009398438,-0.12011993587,"(0.003, 0.0, 0.0, 0.0, 0.003, 0.0, 0.0, 0.0, 0.003)"
2022/03/09/18:23:57.035184,11899,1646846637,33414764,imu_iphone,0.00188040012258,0.0201041523538,-0.910387279307,0.413264187694,"(0.00872665, 0.0, 0.0, 0.0, 0.00872665, 0.0, 0.0, 0.0, 0.00872665)",0.00064147496596,0.000654059462249,0.000199096743017,"(0.000872665, 0.0, 0.0, 0.0, 0.000872665, 0.0, 0.0, 0.0, 0.000872665)",-0.00717113491148,-0.0247938388959,-0.121313352585,"(0.003, 0.0, 0.0, 0.0, 0.003, 0.0, 0.0, 0.0, 0.003)"
2022/03/09/18:23:57.064558,11900,1646846637,63265554,imu_iphone,0.00188714022214,0.0200844865506,-0.910389001983,0.413261318261,"(0.00872665, 0.0, 0.0, 0.0, 0.00872665, 0.0, 0.0, 0.0, 0.00872665)",-0.000195980072021,-0.000106966122985,-0.000201280228794,"(0.000872665, 0.0, 0.0, 0.0, 0.000872665, 0.0, 0.0, 0.0, 0.000872665)",0.00320131402463,-0.0219898797199,-0.113365232348,"(0.003, 0.0, 0.0, 0.0, 0.003, 0.0, 0.0, 0.0, 0.003)"
2022/03/09/18:23:57.093409,11901,1646846637,93064957,imu_iphone,0.00189699851619,0.020069442856,-0.910391594924,0.413256291848,"(0.00872665, 0.0, 0.0, 0.0, 0.00872665, 0.0, 0.0, 0.0, 0.00872665)",0.000423843972385,0.000485854223371,-0.000632176175714,"(0.000872665, 0.0, 0.0, 0.0, 0.000872665, 0.0, 0.0, 0.0, 0.000872665)",-0.00328335776925,-0.0225364116579,-0.118443539143,"(0.003, 0.0, 0.0, 0.0, 0.003, 0.0, 0.0, 0.0, 0.003)"
2022/03/09/18:23:57.124442,11902,1646846637,123708801,imu_iphone,0.00191755886356,0.020076008876,-0.910387361111,0.41326520488,"(0.00872665, 0.0, 0.0, 0.0, 0.00872665, 0.0, 0.0, 0.0, 0.00872665)",0.000669434666634,9.2376023531e-05,-1.15996226668e-05,"(0.000872665, 0.0, 0.0, 0.0, 0.000872665, 0.0, 0.0, 0.0, 0.000872665)",0.00295214954764,-0.0260044866242,-0.11006740272,"(0.003, 0.0, 0.0, 0.0, 0.003, 0.0, 0.0, 0.0, 0.003)"
2022/03/09/18:23:57.155664,11903,1646846637,155255119,imu_iphone,0.00193573523731,0.0200742448833,-0.910387247523,0.413265456056,"(0.00872665, 0.0, 0.0, 0.0, 0.00872665, 0.0, 0.0, 0.0, 0.00872665)",0.000841092783958,-0.000884732231498,-0.00169196119532,"(0.000872665, 0.0, 0.0, 0.0, 0.000872665, 0.0, 0.0, 0.0, 0.000872665)",0.00157571498305,-0.0176108451001,-0.119647480845,"(0.003, 0.0, 0.0, 0.0, 0.003, 0.0, 0.0, 0.0, 0.003)"
2022/03/09/18:23:57.183434,11904,1646846637,182884583,imu_iphone,0.00194244578298,0.0200790864533,-0.91038501638,0.413270104342,"(0.00872665, 0.0, 0.0, 0.0, 0.00872665, 0.0, 0.0, 0.0, 0.00872665)",-0.000703576952219,-0.00226780772209,0.000102648511529,"(0.000872665, 0.0, 0.0, 0.0, 0.000872665, 0.0, 0.0, 0.0, 0.000872665)",0.00714522443712,-0.0273294108734,-0.120998772383,"(0.003, 0.0, 0.0, 0.0, 0.003, 0.0, 0.0, 0.0, 0.003)"
2022/03/09/18:23:57.212916,11905,1646846637,212420505,imu_iphone,0.00193461728431,0.020091894141,-0.910375685681,0.413290072428,"(0.00872665, 0.0, 0.0, 0.0, 0.00872665, 0.0, 0.0, 0.0, 0.00872665)",-0.00167580880225,0.000886308029294,0.000696444883943,"(0.000872665, 0.0, 0.0, 0.0, 0.000872665, 0.0, 0.0, 0.0, 0.000872665)",0.00354111034423,-0.0194243955798,-0.110081436038,"(0.003, 0.0, 0.0, 0.0, 0.003, 0.0, 0.0, 0.0, 0.003)"
2022/03/09/18:23:57.249311,11906,1646846637,245778611,imu_iphone,0.00192982126482,0.0201016894657,-0.910374962411,0.413291211721,"(0.00872665, 0.0, 0.0, 0.0, 0.00872665, 0.0, 0.0, 0.0, 0.00872665)",-0.00246661901474,-0.000256033614278,-0.00206455215812,"(0.000872665, 0.0, 0.0, 0.0, 0.000872665, 0.0, 0.0, 0.0, 0.000872665)",-0.00522671643645,-0.0186817626469,-0.111585339904,"(0.003, 0.0, 0.0, 0.0, 0.003, 0.0, 0.0, 0.0, 0.003)"
2022/03/09/18:23:57.273207,11907,1646846637,271852302,imu_iphone,0.00192556436249,0.0201123474305,-0.910381489195,0.413276335898,"(0.00872665, 0.0, 0.0, 0.0, 0.00872665, 0.0, 0.0, 0.0, 0.00872665)",-0.000216083601117,-0.000869896262884,-0.00235132034868,"(0.000872665, 0.0, 0.0, 0.0, 0.000872665, 0.0, 0.0, 0.0, 0.000872665)",0.00338389333338,-0.03110115733,-0.119676716924,"(0.003, 0.0, 0.0, 0.0, 0.003, 0.0, 0.0, 0.0, 0.003)"
2022/03/09/18:23:57.302871,11908,1646846637,301664805,imu_iphone,0.00192125323895,0.0201120534757,-0.910392800303,0.413251452808,"(0.00872665, 0.0, 0.0, 0.0, 0.00872665, 0.0, 0.0, 0.0, 0.00872665)",-0.000640166923404,0.0013488298282,3.77632677555e-05,"(0.000872665, 0.0, 0.0, 0.0, 0.000872665, 0.0, 0.0, 0.0, 0.000872665)",0.00296991046518,-0.0214601585269,-0.114586715698,"(0.003, 0.0, 0.0, 0.0, 0.003, 0.0, 0.0, 0.0, 0.003)"
2022/03/09/18:23:57.331648,11909,1646846637,331313810,imu_iphone,0.00192194044243,0.0200996625567,-0.910390468086,0.413257190292,"(0.00872665, 0.0, 0.0, 0.0, 0.00872665, 0.0, 0.0, 0.0, 0.00872665)",-8.9536421001e-05,-0.00223267171532,-1.46729871631e-06,"(0.000872665, 0.0, 0.0, 0.0, 0.000872665, 0.0, 0.0, 0.0, 0.000872665)",0.00274194214493,-0.0294796696119,-0.113678643107,"(0.003, 0.0, 0.0, 0.0, 0.003, 0.0, 0.0, 0.0, 0.003)"
2022/03/09/18:23:57.365988,11910,1646846637,364791014,imu_iphone,0.00191334919314,0.0200822600911,-0.910396711633,0.413244321645,"(0.00872665, 0.0, 0.0, 0.0, 0.00872665, 0.0, 0.0, 0.0, 0.00872665)",-0.00169033557177,0.000203969888389,-0.00226584728807,"(0.000872665, 0.0, 0.0, 0.0, 0.000872665, 0.0, 0.0, 0.0, 0.000872665)",-0.000340454131365,-0.0218455996737,-0.119203092456,"(0.003, 0.0, 0.0, 0.0, 0.003, 0.0, 0.0, 0.0, 0.003)"
2022/03/09/18:23:57.391629,11911,1646846637,391215240,imu_iphone,0.00192775976303,0.0200626013221,-0.910398555027,0.413241148454,"(0.00872665, 0.0, 0.0, 0.0, 0.00872665, 0.0, 0.0, 0.0, 0.00872665)",0.00120228156447,0.000187767669559,0.000298583880067,"(0.000872665, 0.0, 0.0, 0.0, 0.000872665, 0.0, 0.0, 0.0, 0.000872665)",-0.00724415201694,-0.02773628572,-0.112751859426,"(0.003, 0.0, 0.0, 0.0, 0.003, 0.0, 0.0, 0.0, 0.003)"
2022/03/09/18:23:57.424419,11912,1646846637,422492415,imu_iphone,0.00194052766524,0.0200422973911,-0.910395765543,0.413248219294,"(0.00872665, 0.0, 0.0, 0.0, 0.00872665, 0.0, 0.0, 0.0, 0.00872665)",-0.000723135657609,0.000989889726043,0.00125645427033,"(0.000872665, 0.0, 0.0, 0.0, 0.000872665, 0.0, 0.0, 0.0, 0.000872665)",-0.0151961825788,-0.0267720615864,-0.120521054864,"(0.003, 0.0, 0.0, 0.0, 0.003, 0.0, 0.0, 0.0, 0.003)"
2022/03/09/18:23:57.452440,11913,1646846637,450689320,imu_iphone,0.0019290980063,0.0200317632489,-0.910388621198,0.413264522353,"(0.00872665, 0.0, 0.0, 0.0, 0.00872665, 0.0, 0.0, 0.0, 0.00872665)",-0.00196336396039,0.0019512642175,0.000795277301222,"(0.000872665, 0.0, 0.0, 0.0, 0.000872665, 0.0, 0.0, 0.0, 0.000872665)",-0.0043677970022,-0.0234629577957,-0.111829753518,"(0.003, 0.0, 0.0, 0.0, 0.003, 0.0, 0.0, 0.0, 0.003)"
2022/03/09/18:23:57.486653,11914,1646846637,485502651,imu_iphone,0.00192030306204,0.0200279241947,-0.910386919288,0.413268498531,"(0.00872665, 0.0, 0.0, 0.0, 0.00872665, 0.0, 0.0, 0.0, 0.00872665)",0.00235469080508,-0.000736070796847,4.24673780799e-05,"(0.000872665, 0.0, 0.0, 0.0, 0.000872665, 0.0, 0.0, 0.0, 0.000872665)",0.000424142405391,-0.0239490624145,-0.110628735423,"(0.003, 0.0, 0.0, 0.0, 0.003, 0.0, 0.0, 0.0, 0.003)"
2022/03/09/18:23:57.510464,11915,1646846637,510150743,imu_iphone,0.00193243732931,0.0200300210947,-0.910388946001,0.413263875677,"(0.00872665, 0.0, 0.0, 0.0, 0.00872665, 0.0, 0.0, 0.0, 0.00872665)",0.00112420460209,-0.000709688290954,-0.000201338436455,"(0.000872665, 0.0, 0.0, 0.0, 0.000872665, 0.0, 0.0, 0.0, 0.000872665)",-0.00412648972124,-0.0337461818755,-0.110032319427,"(0.003, 0.0, 0.0, 0.0, 0.003, 0.0, 0.0, 0.0, 0.003)"
2022/03/09/18:23:57.541756,11916,1646846637,540212507,imu_iphone,0.00193198657241,0.0200285820378,-0.910383659159,0.413275593842,"(0.00872665, 0.0, 0.0, 0.0, 0.00872665, 0.0, 0.0, 0.0, 0.00872665)",0.00122084561735,0.000522992573678,0.00115106720477,"(0.000872665, 0.0, 0.0, 0.0, 0.000872665, 0.0, 0.0, 0.0, 0.000872665)",-0.00894108708948,-0.0210379530117,-0.115419943929,"(0.003, 0.0, 0.0, 0.0, 0.003, 0.0, 0.0, 0.0, 0.003)"
2022/03/09/18:23:57.570273,11917,1646846637,569895764,imu_iphone,0.00192532698241,0.0200342973931,-0.910388948412,0.413263696269,"(0.00872665, 0.0, 0.0, 0.0, 0.00872665, 0.0, 0.0, 0.0, 0.00872665)",-0.000911111943424,-0.000115491449833,0.00157294608653,"(0.000872665, 0.0, 0.0, 0.0, 0.000872665, 0.0, 0.0, 0.0, 0.000872665)",0.00184541780502,-0.0188697323576,-0.107191157341,"(0.003, 0.0, 0.0, 0.0, 0.003, 0.0, 0.0, 0.0, 0.003)"
2022/03/09/18:23:57.605563,11918,1646846637,603488767,imu_iphone,0.00193008362776,0.0200340726727,-0.910391386288,0.413258314474,"(0.00872665, 0.0, 0.0, 0.0, 0.00872665, 0.0, 0.0, 0.0, 0.00872665)",-0.000301373191178,0.00116536207497,-0.00128718419001,"(0.000872665, 0.0, 0.0, 0.0, 0.000872665, 0.0, 0.0, 0.0, 0.000872665)",-0.00553073510528,-0.0205848668888,-0.115873103142,"(0.003, 0.0, 0.0, 0.0, 0.003, 0.0, 0.0, 0.0, 0.003)"
2022/03/09/18:23:57.630365,11919,1646846637,629621884,imu_iphone,0.00192786356086,0.020031484895,-0.910396191932,0.413247863479,"(0.00872665, 0.0, 0.0, 0.0, 0.00872665, 0.0, 0.0, 0.0, 0.00872665)",0.000968487933278,-0.000782697461545,-0.000741276890039,"(0.000872665, 0.0, 0.0, 0.0, 0.000872665, 0.0, 0.0, 0.0, 0.000872665)",-0.0040597583726,-0.0204997350834,-0.121409246922,"(0.003, 0.0, 0.0, 0.0, 0.003, 0.0, 0.0, 0.0, 0.003)"
2022/03/09/18:23:57.660508,11920,1646846637,659191308,imu_iphone,0.00192265541832,0.0200230978859,-0.910395724991,0.413249322886,"(0.00872665, 0.0, 0.0, 0.0, 0.00872665, 0.0, 0.0, 0.0, 0.00872665)",0.00109786354005,0.00238902773708,-0.00168569013476,"(0.000872665, 0.0, 0.0, 0.0, 0.000872665, 0.0, 0.0, 0.0, 0.000872665)",-0.00192227214575,-0.016918004863,-0.113319624066,"(0.003, 0.0, 0.0, 0.0, 0.003, 0.0, 0.0, 0.0, 0.003)"
2022/03/09/18:23:57.689647,11921,1646846637,689055316,imu_iphone,0.00192233737841,0.0200236982297,-0.910392103696,0.413257272963,"(0.00872665, 0.0, 0.0, 0.0, 0.00872665, 0.0, 0.0, 0.0, 0.00872665)",-0.000652247108519,-0.00270063383505,0.000593243166804,"(0.000872665, 0.0, 0.0, 0.0, 0.000872665, 0.0, 0.0, 0.0, 0.000872665)",0.00497499380261,-0.0229033609852,-0.108828962445,"(0.003, 0.0, 0.0, 0.0, 0.003, 0.0, 0.0, 0.0, 0.003)"
2022/03/09/18:23:57.720904,11922,1646846637,718966578,imu_iphone,0.0019273238106,0.0200196221526,-0.910393371636,0.413254653975,"(0.00872665, 0.0, 0.0, 0.0, 0.00872665, 0.0, 0.0, 0.0, 0.00872665)",0.00138301914558,0.00174195691943,0.000181776005775,"(0.000872665, 0.0, 0.0, 0.0, 0.000872665, 0.0, 0.0, 0.0, 0.000872665)",-0.000825809575617,-0.0191061060503,-0.116609852314,"(0.003, 0.0, 0.0, 0.0, 0.003, 0.0, 0.0, 0.0, 0.003)"
2022/03/09/18:23:57.751088,11923,1646846637,750329958,imu_iphone,0.00194009044616,0.0200127057713,-0.910392711119,0.413256384341,"(0.00872665, 0.0, 0.0, 0.0, 0.00872665, 0.0, 0.0, 0.0, 0.00872665)",0.00143816648051,0.00146737881005,-0.000611648894846,"(0.000872665, 0.0, 0.0, 0.0, 0.000872665, 0.0, 0.0, 0.0, 0.000872665)",-0.00359790142626,-0.0226757215708,-0.121695175767,"(0.003, 0.0, 0.0, 0.0, 0.003, 0.0, 0.0, 0.0, 0.003)"
2022/03/09/18:23:57.780577,11924,1646846637,778407189,imu_iphone,0.00193354688668,0.0200235869634,-0.91039308099,0.413255073105,"(0.00872665, 0.0, 0.0, 0.0, 0.00872665, 0.0, 0.0, 0.0, 0.00872665)",-0.000992470420897,-0.00138714164495,0.000906121917069,"(0.000872665, 0.0, 0.0, 0.0, 0.000872665, 0.0, 0.0, 0.0, 0.000872665)",-0.0165229158103,-0.0270458574593,-0.120805229545,"(0.003, 0.0, 0.0, 0.0, 0.003, 0.0, 0.0, 0.0, 0.003)"
2022/03/09/18:23:57.809186,11925,1646846637,808644465,imu_iphone,0.00193584963352,0.0200405651578,-0.910391933916,0.413256766303,"(0.00872665, 0.0, 0.0, 0.0, 0.00872665, 0.0, 0.0, 0.0, 0.00872665)",-0.000382541678846,-0.000764005817473,-0.000922114122659,"(0.000872665, 0.0, 0.0, 0.0, 0.000872665, 0.0, 0.0, 0.0, 0.000872665)",-0.00141963087022,-0.0195317102596,-0.112585798502,"(0.003, 0.0, 0.0, 0.0, 0.003, 0.0, 0.0, 0.0, 0.003)"
2022/03/09/18:23:57.840591,11926,1646846637,839017461,imu_iphone,0.00194917315323,0.0200454709062,-0.910390617932,0.413259364807,"(0.00872665, 0.0, 0.0, 0.0, 0.00872665, 0.0, 0.0, 0.0, 0.00872665)",-0.000266323797405,6.86328858137e-05,0.000294064637274,"(0.000872665, 0.0, 0.0, 0.0, 0.000872665, 0.0, 0.0, 0.0, 0.000872665)",0.00484624542296,-0.0280845970474,-0.117829581499,"(0.003, 0.0, 0.0, 0.0, 0.003, 0.0, 0.0, 0.0, 0.003)"
2022/03/09/18:23:57.869161,11927,1646846637,867713662,imu_iphone,0.00195945991294,0.0200575362083,-0.910393535936,0.413252302454,"(0.00872665, 0.0, 0.0, 0.0, 0.00872665, 0.0, 0.0, 0.0, 0.00872665)",0.000376771204174,-0.00117077492177,-0.000239255372435,"(0.000872665, 0.0, 0.0, 0.0, 0.000872665, 0.0, 0.0, 0.0, 0.000872665)",-0.00175621122122,-0.0257100610435,-0.110655047894,"(0.003, 0.0, 0.0, 0.0, 0.003, 0.0, 0.0, 0.0, 0.003)"
2022/03/09/18:23:57.899140,11928,1646846637,897666678,imu_iphone,0.00197300820097,0.0200412974864,-0.910396461342,0.413246581122,"(0.00872665, 0.0, 0.0, 0.0, 0.00872665, 0.0, 0.0, 0.0, 0.00872665)",0.00274835759774,-0.000303196720779,0.00124222040176,"(0.000872665, 0.0, 0.0, 0.0, 0.000872665, 0.0, 0.0, 0.0, 0.000872665)",-0.00829197306186,-0.0279968705401,-0.119025921822,"(0.003, 0.0, 0.0, 0.0, 0.003, 0.0, 0.0, 0.0, 0.003)"
2022/03/09/18:23:57.927867,11929,1646846637,927412173,imu_iphone,0.00198781130267,0.0200532875407,-0.910388753128,0.413262909591,"(0.00872665, 0.0, 0.0, 0.0, 0.00872665, 0.0, 0.0, 0.0, 0.00872665)",0.000967824831605,0.00269494391978,-0.00131790013984,"(0.000872665, 0.0, 0.0, 0.0, 0.000872665, 0.0, 0.0, 0.0, 0.000872665)",-0.00790214650333,-0.0237372104824,-0.114396096468,"(0.003, 0.0, 0.0, 0.0, 0.003, 0.0, 0.0, 0.0, 0.003)"
2022/03/09/18:23:57.964323,11930,1646846637,962552391,imu_iphone,0.00198902679753,0.0200573209472,-0.910387380755,0.413265731233,"(0.00872665, 0.0, 0.0, 0.0, 0.00872665, 0.0, 0.0, 0.0, 0.00872665)",0.000948849134147,5.05149364471e-06,0.000458647496998,"(0.000872665, 0.0, 0.0, 0.0, 0.000872665, 0.0, 0.0, 0.0, 0.000872665)",-0.0103853128105,-0.0169457608648,-0.110507113338,"(0.003, 0.0, 0.0, 0.0, 0.003, 0.0, 0.0, 0.0, 0.003)"
2022/03/09/18:23:57.989490,11931,1646846637,987941462,imu_iphone,0.00199452440668,0.0200521237516,-0.910382874282,0.413275884148,"(0.00872665, 0.0, 0.0, 0.0, 0.00872665, 0.0, 0.0, 0.0, 0.00872665)",-0.00255927350372,0.000245545059443,0.00134344073012,"(0.000872665, 0.0, 0.0, 0.0, 0.000872665, 0.0, 0.0, 0.0, 0.000872665)",-0.00319013122469,-0.0191312125325,-0.115742710233,"(0.003, 0.0, 0.0, 0.0, 0.003, 0.0, 0.0, 0.0, 0.003)"
2022/03/09/18:23:58.017712,11932,1646846638,16830706,imu_iphone,0.0019847617959,0.0200469645822,-0.910379862918,0.41328281494,"(0.00872665, 0.0, 0.0, 0.0, 0.00872665, 0.0, 0.0, 0.0, 0.00872665)",0.000483731739223,0.00060592032969,-2.19186767936e-05,"(0.000872665, 0.0, 0.0, 0.0, 0.000872665, 0.0, 0.0, 0.0, 0.000872665)",0.000238274037838,-0.0191951116361,-0.106457331777,"(0.003, 0.0, 0.0, 0.0, 0.003, 0.0, 0.0, 0.0, 0.003)"
2022/03/09/18:23:58.056115,11933,1646846638,54463678,imu_iphone,0.00198378262068,0.0200456322456,-0.910379478245,0.413283731623,"(0.00872665, 0.0, 0.0, 0.0, 0.00872665, 0.0, 0.0, 0.0, 0.00872665)",0.000103810802102,0.000259011052549,0.000362796708941,"(0.000872665, 0.0, 0.0, 0.0, 0.000872665, 0.0, 0.0, 0.0, 0.000872665)",-0.00831006288528,-0.0273062595539,-0.114988419414,"(0.003, 0.0, 0.0, 0.0, 0.003, 0.0, 0.0, 0.0, 0.003)"
2022/03/09/18:23:58.081843,11934,1646846638,79264440,imu_iphone,0.00199665175534,0.0200566971869,-0.910382628319,0.413276193768,"(0.00872665, 0.0, 0.0, 0.0, 0.00872665, 0.0, 0.0, 0.0, 0.00872665)",0.00149217154831,-9.2008151114e-05,0.001541568432,"(0.000872665, 0.0, 0.0, 0.0, 0.000872665, 0.0, 0.0, 0.0, 0.000872665)",0.000766131430864,-0.0307317046635,-0.1109561795,"(0.003, 0.0, 0.0, 0.0, 0.003, 0.0, 0.0, 0.0, 0.003)"
2022/03/09/18:23:58.106716,11935,1646846638,106288640,imu_iphone,0.00200820942442,0.0200654239209,-0.910388988203,0.413261704029,"(0.00872665, 0.0, 0.0, 0.0, 0.00872665, 0.0, 0.0, 0.0, 0.00872665)",0.0035430919379,0.000706920400262,-0.000808782875538,"(0.000872665, 0.0, 0.0, 0.0, 0.000872665, 0.0, 0.0, 0.0, 0.000872665)",-0.00425808861852,-0.03659722941,-0.113808451295,"(0.003, 0.0, 0.0, 0.0, 0.003, 0.0, 0.0, 0.0, 0.003)"
2022/03/09/18:23:58.137598,11936,1646846638,135945148,imu_iphone,0.00203386206725,0.0200796504494,-0.910394635794,0.413248446048,"(0.00872665, 0.0, 0.0, 0.0, 0.00872665, 0.0, 0.0, 0.0, 0.00872665)",0.00118325417861,-0.000920514576137,-7.23251141608e-05,"(0.000872665, 0.0, 0.0, 0.0, 0.000872665, 0.0, 0.0, 0.0, 0.000872665)",-0.00735265441239,-0.015820683483,-0.116216334701,"(0.003, 0.0, 0.0, 0.0, 0.003, 0.0, 0.0, 0.0, 0.003)"
2022/03/09/18:23:58.166080,11937,1646846638,165614225,imu_iphone,0.00205126770899,0.0200864358426,-0.910393980752,0.413249473329,"(0.00872665, 0.0, 0.0, 0.0, 0.00872665, 0.0, 0.0, 0.0, 0.00872665)",9.76631417871e-05,0.00221882015467,0.000556047540158,"(0.000872665, 0.0, 0.0, 0.0, 0.000872665, 0.0, 0.0, 0.0, 0.000872665)",-0.00512756958604,-0.0182984959334,-0.119516503215,"(0.003, 0.0, 0.0, 0.0, 0.003, 0.0, 0.0, 0.0, 0.003)"
2022/03/09/18:23:58.199486,11938,1646846638,197715476,imu_iphone,0.00204937607754,0.0200988044943,-0.910392424456,0.413252309866,"(0.00872665, 0.0, 0.0, 0.0, 0.00872665, 0.0, 0.0, 0.0, 0.00872665)",0.00239212950692,-0.00137047283351,-0.00149456923828,"(0.000872665, 0.0, 0.0, 0.0, 0.000872665, 0.0, 0.0, 0.0, 0.000872665)",0.00289181359112,-0.0200271704234,-0.116232706904,"(0.003, 0.0, 0.0, 0.0, 0.003, 0.0, 0.0, 0.0, 0.003)"
2022/03/09/18:23:58.225859,11939,1646846638,225438594,imu_iphone,0.00204508751776,0.0200978019368,-0.910392341446,0.413252562739,"(0.00872665, 0.0, 0.0, 0.0, 0.00872665, 0.0, 0.0, 0.0, 0.00872665)",-0.0010672332719,0.00132989790291,0.0026524066925,"(0.000872665, 0.0, 0.0, 0.0, 0.000872665, 0.0, 0.0, 0.0, 0.000872665)",0.0063514649123,-0.0232552720048,-0.123865662217,"(0.003, 0.0, 0.0, 0.0, 0.003, 0.0, 0.0, 0.0, 0.003)"
2022/03/09/18:23:58.255708,11940,1646846638,255330192,imu_iphone,0.00204252508844,0.0200739784538,-0.910391689687,0.41325516915,"(0.00872665, 0.0, 0.0, 0.0, 0.00872665, 0.0, 0.0, 0.0, 0.00872665)",-0.0011926824227,0.00157508812845,0.00163280591369,"(0.000872665, 0.0, 0.0, 0.0, 0.000872665, 0.0, 0.0, 0.0, 0.000872665)",-0.000490289032459,-0.0197510173917,-0.115015316606,"(0.003, 0.0, 0.0, 0.0, 0.003, 0.0, 0.0, 0.0, 0.003)"
2022/03/09/18:23:58.285345,11941,1646846638,284426288,imu_iphone,0.002051927731,0.0200691330134,-0.91038848178,0.41326242478,"(0.00872665, 0.0, 0.0, 0.0, 0.00872665, 0.0, 0.0, 0.0, 0.00872665)",-0.00175143964589,-0.000587984919548,-0.000917572993785,"(0.000872665, 0.0, 0.0, 0.0, 0.000872665, 0.0, 0.0, 0.0, 0.000872665)",-0.00843844581395,-0.0196196194924,-0.123095583916,"(0.003, 0.0, 0.0, 0.0, 0.003, 0.0, 0.0, 0.0, 0.003)"
2022/03/09/18:23:58.315604,11942,1646846638,314779576,imu_iphone,0.00206172856232,0.0200623245757,-0.910389751689,0.41325990905,"(0.00872665, 0.0, 0.0, 0.0, 0.00872665, 0.0, 0.0, 0.0, 0.00872665)",-0.000412631779909,-0.000369452871382,0.00103896018118,"(0.000872665, 0.0, 0.0, 0.0, 0.000872665, 0.0, 0.0, 0.0, 0.000872665)",-0.0066929423064,-0.014261614792,-0.120097131729,"(0.003, 0.0, 0.0, 0.0, 0.003, 0.0, 0.0, 0.0, 0.003)"
2022/03/09/18:23:58.350422,11943,1646846638,344417176,imu_iphone,0.00204520415517,0.0200580748631,-0.910391763508,0.413255765489,"(0.00872665, 0.0, 0.0, 0.0, 0.00872665, 0.0, 0.0, 0.0, 0.00872665)",-0.00175115745515,-0.000547090545297,-0.00247417390347,"(0.000872665, 0.0, 0.0, 0.0, 0.000872665, 0.0, 0.0, 0.0, 0.000872665)",0.00174864638597,-0.026717554573,-0.106470780373,"(0.003, 0.0, 0.0, 0.0, 0.003, 0.0, 0.0, 0.0, 0.003)"
2022/03/09/18:23:58.375590,11944,1646846638,374956353,imu_iphone,0.00203543311034,0.020075517987,-0.910390159104,0.413258501179,"(0.00872665, 0.0, 0.0, 0.0, 0.00872665, 0.0, 0.0, 0.0, 0.00872665)",-0.000780177302659,0.000901781953871,0.000427758786827,"(0.000872665, 0.0, 0.0, 0.0, 0.000872665, 0.0, 0.0, 0.0, 0.000872665)",0.000791493728757,-0.0322881238349,-0.116063722372,"(0.003, 0.0, 0.0, 0.0, 0.003, 0.0, 0.0, 0.0, 0.003)"
2022/03/09/18:23:58.404417,11945,1646846638,403921789,imu_iphone,0.00205481320172,0.0200640683171,-0.910393762199,0.413251023779,"(0.00872665, 0.0, 0.0, 0.0, 0.00872665, 0.0, 0.0, 0.0, 0.00872665)",0.000341542065144,-0.00178577471524,-0.00130015658215,"(0.000872665, 0.0, 0.0, 0.0, 0.000872665, 0.0, 0.0, 0.0, 0.000872665)",-0.00360999785364,-0.021559360195,-0.117103942037,"(0.003, 0.0, 0.0, 0.0, 0.003, 0.0, 0.0, 0.0, 0.003)"
2022/03/09/18:23:58.434738,11946,1646846638,433851908,imu_iphone,0.00206155078361,0.0200668583847,-0.910395054655,0.413248007451,"(0.00872665, 0.0, 0.0, 0.0, 0.00872665, 0.0, 0.0, 0.0, 0.00872665)",0.00263088848442,-0.000369780696929,0.000769781414419,"(0.000872665, 0.0, 0.0, 0.0, 0.000872665, 0.0, 0.0, 0.0, 0.000872665)",-0.0119967688993,-0.023363500312,-0.112765892744,"(0.003, 0.0, 0.0, 0.0, 0.003, 0.0, 0.0, 0.0, 0.003)"
2022/03/09/18:23:58.464382,11947,1646846638,463679115,imu_iphone,0.00205559363167,0.0200780322974,-0.910396583305,0.413244126711,"(0.00872665, 0.0, 0.0, 0.0, 0.00872665, 0.0, 0.0, 0.0, 0.00872665)",-0.000661184079945,0.00125443097204,0.00198745215312,"(0.000872665, 0.0, 0.0, 0.0, 0.000872665, 0.0, 0.0, 0.0, 0.000872665)",-0.00860465291888,-0.0220335693844,-0.118611938953,"(0.003, 0.0, 0.0, 0.0, 0.003, 0.0, 0.0, 0.0, 0.003)"
2022/03/09/18:23:58.494066,11948,1646846638,493536882,imu_iphone,0.00205342303043,0.020079567033,-0.910393840036,0.413250106431,"(0.00872665, 0.0, 0.0, 0.0, 0.00872665, 0.0, 0.0, 0.0, 0.00872665)",0.000918412581086,-0.0035974397324,0.000328863970935,"(0.000872665, 0.0, 0.0, 0.0, 0.000872665, 0.0, 0.0, 0.0, 0.000872665)",-0.00302249886096,-0.0259495593421,-0.119511240721,"(0.003, 0.0, 0.0, 0.0, 0.003, 0.0, 0.0, 0.0, 0.003)"
2022/03/09/18:23:58.524668,11949,1646846638,524298190,imu_iphone,0.00204014948314,0.0200993418713,-0.910395147026,0.413246331524,"(0.00872665, 0.0, 0.0, 0.0, 0.00872665, 0.0, 0.0, 0.0, 0.00872665)",0.000463194679469,-0.00199991650879,0.000223079230636,"(0.000872665, 0.0, 0.0, 0.0, 0.000872665, 0.0, 0.0, 0.0, 0.000872665)",-0.00435723546892,-0.0236327280477,-0.121322123408,"(0.003, 0.0, 0.0, 0.0, 0.003, 0.0, 0.0, 0.0, 0.003)"
2022/03/09/18:23:58.553452,11950,1646846638,553033439,imu_iphone,0.00204817884119,0.0200832650772,-0.9103969984,0.413242994776,"(0.00872665, 0.0, 0.0, 0.0, 0.00872665, 0.0, 0.0, 0.0, 0.00872665)",0.00240334449336,0.00336531177163,-0.000687160529196,"(0.000872665, 0.0, 0.0, 0.0, 0.000872665, 0.0, 0.0, 0.0, 0.000872665)",-0.000816746391356,-0.0249681041948,-0.116819182634,"(0.003, 0.0, 0.0, 0.0, 0.003, 0.0, 0.0, 0.0, 0.003)"
2022/03/09/18:23:58.585548,11951,1646846638,582783519,imu_iphone,0.00205971585587,0.0200690949825,-0.910403634007,0.413229006949,"(0.00872665, 0.0, 0.0, 0.0, 0.00872665, 0.0, 0.0, 0.0, 0.00872665)",2.5917775929e-05,0.0015326961875,-0.000340239144862,"(0.000872665, 0.0, 0.0, 0.0, 0.000872665, 0.0, 0.0, 0.0, 0.000872665)",-0.00804587837309,-0.0271274809353,-0.111270759702,"(0.003, 0.0, 0.0, 0.0, 0.003, 0.0, 0.0, 0.0, 0.003)"
2022/03/09/18:23:58.612974,11952,1646846638,612578570,imu_iphone,0.00206785721796,0.0200565578103,-0.910403075393,0.413230805689,"(0.00872665, 0.0, 0.0, 0.0, 0.00872665, 0.0, 0.0, 0.0, 0.00872665)",0.00395689345896,0.00201645679772,0.000155090354383,"(0.000872665, 0.0, 0.0, 0.0, 0.000872665, 0.0, 0.0, 0.0, 0.000872665)",-0.00384545791894,-0.0164551246539,-0.115003622174,"(0.003, 0.0, 0.0, 0.0, 0.003, 0.0, 0.0, 0.0, 0.003)"
2022/03/09/18:23:58.645480,11953,1646846638,644737022,imu_iphone,0.00208474620508,0.0200486154792,-0.910410891631,0.413213885598,"(0.00872665, 0.0, 0.0, 0.0, 0.00872665, 0.0, 0.0, 0.0, 0.00872665)",-0.00154213048518,0.000221881084144,-0.00143517227843,"(0.000872665, 0.0, 0.0, 0.0, 0.000872665, 0.0, 0.0, 0.0, 0.000872665)",-0.00367143016309,-0.0247564349882,-0.105418866277,"(0.003, 0.0, 0.0, 0.0, 0.003, 0.0, 0.0, 0.0, 0.003)"
2022/03/09/18:23:58.672814,11954,1646846638,672218768,imu_iphone,0.00209140002674,0.0200375874392,-0.910412824224,0.413210128897,"(0.00872665, 0.0, 0.0, 0.0, 0.00872665, 0.0, 0.0, 0.0, 0.00872665)",0.00101255718619,0.00166244804859,-0.000790978316218,"(0.000872665, 0.0, 0.0, 0.0, 0.000872665, 0.0, 0.0, 0.0, 0.000872665)",-0.0103580501676,-0.0302668692917,-0.123672704101,"(0.003, 0.0, 0.0, 0.0, 0.003, 0.0, 0.0, 0.0, 0.003)"
2022/03/09/18:23:58.703908,11955,1646846638,702386047,imu_iphone,0.00209530425958,0.0200488078252,-0.910413601524,0.413207852255,"(0.00872665, 0.0, 0.0, 0.0, 0.00872665, 0.0, 0.0, 0.0, 0.00872665)",-0.000801756978035,-0.00116090569645,9.17026773095e-06,"(0.000872665, 0.0, 0.0, 0.0, 0.000872665, 0.0, 0.0, 0.0, 0.000872665)",-0.00899133659899,-0.0181319233775,-0.117993303537,"(0.003, 0.0, 0.0, 0.0, 0.003, 0.0, 0.0, 0.0, 0.003)"
2022/03/09/18:23:58.732394,11956,1646846638,731845850,imu_iphone,0.00208497143026,0.020053111774,-0.910415421772,0.413203685127,"(0.00872665, 0.0, 0.0, 0.0, 0.00872665, 0.0, 0.0, 0.0, 0.00872665)",-0.00216571241617,0.00115180201828,0.000843462068588,"(0.000872665, 0.0, 0.0, 0.0, 0.000872665, 0.0, 0.0, 0.0, 0.000872665)",-0.00239322882146,-0.0217260241136,-0.124732219577,"(0.003, 0.0, 0.0, 0.0, 0.003, 0.0, 0.0, 0.0, 0.003)"
2022/03/09/18:23:58.765863,11957,1646846638,765498579,imu_iphone,0.0020792135248,0.0200542473421,-0.910417052871,0.413200065194,"(0.00872665, 0.0, 0.0, 0.0, 0.00872665, 0.0, 0.0, 0.0, 0.00872665)",-0.00396368000656,0.000965876504779,-0.000130307860672,"(0.000872665, 0.0, 0.0, 0.0, 0.000872665, 0.0, 0.0, 0.0, 0.000872665)",-0.000978239178658,-0.0219706935436,-0.113355876803,"(0.003, 0.0, 0.0, 0.0, 0.003, 0.0, 0.0, 0.0, 0.003)"
2022/03/09/18:23:58.793987,11958,1646846638,793641939,imu_iphone,0.00208460530633,0.0200320206609,-0.910413448994,0.413209056605,"(0.00872665, 0.0, 0.0, 0.0, 0.00872665, 0.0, 0.0, 0.0, 0.00872665)",0.00106500927359,-0.000680391676724,-0.00246960204095,"(0.000872665, 0.0, 0.0, 0.0, 0.000872665, 0.0, 0.0, 0.0, 0.000872665)",-0.00695924643427,-0.0222008728422,-0.119625846148,"(0.003, 0.0, 0.0, 0.0, 0.003, 0.0, 0.0, 0.0, 0.003)"
2022/03/09/18:23:58.822737,11959,1646846638,821226435,imu_iphone,0.00208788358778,0.0200288334951,-0.910412476632,0.413211336926,"(0.00872665, 0.0, 0.0, 0.0, 0.00872665, 0.0, 0.0, 0.0, 0.00872665)",-0.0011849552393,0.000513992272317,-0.00108694378287,"(0.000872665, 0.0, 0.0, 0.0, 0.000872665, 0.0, 0.0, 0.0, 0.000872665)",-0.00599540602416,-0.0179760219902,-0.103606814146,"(0.003, 0.0, 0.0, 0.0, 0.003, 0.0, 0.0, 0.0, 0.003)"
2022/03/09/18:23:58.851624,11960,1646846638,851210124,imu_iphone,0.00208005951379,0.0200517118377,-0.910409022549,0.413217876993,"(0.00872665, 0.0, 0.0, 0.0, 0.00872665, 0.0, 0.0, 0.0, 0.00872665)",-4.34275716543e-06,-0.000384059734643,0.00141553580761,"(0.000872665, 0.0, 0.0, 0.0, 0.000872665, 0.0, 0.0, 0.0, 0.000872665)",-0.00806966923177,-0.0287054617144,-0.110510036945,"(0.003, 0.0, 0.0, 0.0, 0.003, 0.0, 0.0, 0.0, 0.003)"
2022/03/09/18:23:58.887962,11961,1646846638,884580655,imu_iphone,0.00209843709612,0.0200482615679,-0.910409582874,0.413216716966,"(0.00872665, 0.0, 0.0, 0.0, 0.00872665, 0.0, 0.0, 0.0, 0.00872665)",0.00209293235093,0.00327194854617,-0.000547400675714,"(0.000872665, 0.0, 0.0, 0.0, 0.000872665, 0.0, 0.0, 0.0, 0.000872665)",-0.00453780479729,-0.0288546753488,-0.115298906565,"(0.003, 0.0, 0.0, 0.0, 0.003, 0.0, 0.0, 0.0, 0.003)"
2022/03/09/18:23:58.912127,11962,1646846638,911700493,imu_iphone,0.00209154138832,0.0200534308012,-0.910414781823,0.413205046443,"(0.00872665, 0.0, 0.0, 0.0, 0.00872665, 0.0, 0.0, 0.0, 0.00872665)",0.00062667671591,-0.00340114254504,-0.00276742270216,"(0.000872665, 0.0, 0.0, 0.0, 0.000872665, 0.0, 0.0, 0.0, 0.000872665)",-0.00109390441328,-0.018162730895,-0.114703660011,"(0.003, 0.0, 0.0, 0.0, 0.003, 0.0, 0.0, 0.0, 0.003)"
2022/03/09/18:23:58.944111,11963,1646846638,940640174,imu_iphone,0.00209437249604,0.0200576866149,-0.910410556456,0.41321413517,"(0.00872665, 0.0, 0.0, 0.0, 0.00872665, 0.0, 0.0, 0.0, 0.00872665)",-0.00259860791266,0.00159258581698,0.0106154233217,"(0.000872665, 0.0, 0.0, 0.0, 0.000872665, 0.0, 0.0, 0.0, 0.000872665)",-0.00358755916357,-0.0179245664924,-0.108420242071,"(0.003, 0.0, 0.0, 0.0, 0.003, 0.0, 0.0, 0.0, 0.003)"
2022/03/09/18:23:58.970519,11964,1646846638,970170001,imu_iphone,0.00192415537756,0.0199045014546,-0.910167505039,0.413757442494,"(0.00872665, 0.0, 0.0, 0.0, 0.00872665, 0.0, 0.0, 0.0, 0.00872665)",-0.0222828164697,0.011068190448,0.0742706805468,"(0.000872665, 0.0, 0.0, 0.0, 0.000872665, 0.0, 0.0, 0.0, 0.000872665)",0.296713230684,0.532892138064,-0.10304782033,"(0.003, 0.0, 0.0, 0.0, 0.003, 0.0, 0.0, 0.0, 0.003)"
2022/03/09/18:23:59.006957,11965,1646846639,6345286,imu_iphone,0.00149620084182,0.0195290610097,-0.909520318029,0.415197745961,"(0.00872665, 0.0, 0.0, 0.0, 0.00872665, 0.0, 0.0, 0.0, 0.00872665)",-0.0448511615396,0.0143512440845,0.140668362379,"(0.000872665, 0.0, 0.0, 0.0, 0.000872665, 0.0, 0.0, 0.0, 0.000872665)",0.277325617746,0.627068051174,-0.117547745705,"(0.003, 0.0, 0.0, 0.0, 0.003, 0.0, 0.0, 0.0, 0.003)"
2022/03/09/18:23:59.031039,11966,1646846639,29843067,imu_iphone,0.000535696940168,0.0191515858576,-0.908799972225,0.416791962821,"(0.00872665, 0.0, 0.0, 0.0, 0.00872665, 0.0, 0.0, 0.0, 0.00872665)",-0.0728670880198,-0.0205516144633,0.0533435717225,"(0.000872665, 0.0, 0.0, 0.0, 0.000872665, 0.0, 0.0, 0.0, 0.000872665)",-0.863100047261,1.06309704199,-0.0904283595085,"(0.003, 0.0, 0.0, 0.0, 0.003, 0.0, 0.0, 0.0, 0.003)"
2022/03/09/18:23:59.060632,11967,1646846639,59564250,imu_iphone,-0.000973457361394,0.0191486741718,-0.909008572784,0.416336156564,"(0.00872665, 0.0, 0.0, 0.0, 0.00872665, 0.0, 0.0, 0.0, 0.00872665)",-0.115770749748,-0.0635873451829,-0.0807139277458,"(0.000872665, 0.0, 0.0, 0.0, 0.000872665, 0.0, 0.0, 0.0, 0.000872665)",-1.36447306171,1.21157363489,-0.117383438945,"(0.003, 0.0, 0.0, 0.0, 0.003, 0.0, 0.0, 0.0, 0.003)"
2022/03/09/18:23:59.094017,11968,1646846639,91175623,imu_iphone,-0.00342584268794,0.0194345010478,-0.909594958243,0.41502719876,"(0.00872665, 0.0, 0.0, 0.0, 0.00872665, 0.0, 0.0, 0.0, 0.00872665)",-0.18182349205,-0.118527933955,-0.0748341605067,"(0.000872665, 0.0, 0.0, 0.0, 0.000872665, 0.0, 0.0, 0.0, 0.000872665)",-1.62556191176,1.88200090975,-0.122302116752,"(0.003, 0.0, 0.0, 0.0, 0.003, 0.0, 0.0, 0.0, 0.003)"
2022/03/09/18:23:59.122985,11969,1646846639,120755431,imu_iphone,-0.00711264687247,0.0201330666498,-0.909828448829,0.414434872548,"(0.00872665, 0.0, 0.0, 0.0, 0.00872665, 0.0, 0.0, 0.0, 0.00872665)",-0.23401632905,-0.174518465996,0.0184270143509,"(0.000872665, 0.0, 0.0, 0.0, 0.000872665, 0.0, 0.0, 0.0, 0.000872665)",-2.07748633906,1.81474126518,-0.136928926706,"(0.003, 0.0, 0.0, 0.0, 0.003, 0.0, 0.0, 0.0, 0.003)"
2022/03/09/18:23:59.150818,11970,1646846639,149335752,imu_iphone,-0.011720162067,0.02134638132,-0.90949507088,0.415000826325,"(0.00872665, 0.0, 0.0, 0.0, 0.00872665, 0.0, 0.0, 0.0, 0.00872665)",-0.257759779692,-0.229640856385,0.101276658475,"(0.000872665, 0.0, 0.0, 0.0, 0.000872665, 0.0, 0.0, 0.0, 0.000872665)",-2.01268427923,1.22924041227,-0.204883512855,"(0.003, 0.0, 0.0, 0.0, 0.003, 0.0, 0.0, 0.0, 0.003)"
2022/03/09/18:23:59.178904,11971,1646846639,178488641,imu_iphone,-0.0170429745879,0.0232098222607,-0.908582998411,0.416710662411,"(0.00872665, 0.0, 0.0, 0.0, 0.00872665, 0.0, 0.0, 0.0, 0.00872665)",-0.258086174726,-0.292864471674,0.21374180913,"(0.000872665, 0.0, 0.0, 0.0, 0.000872665, 0.0, 0.0, 0.0, 0.000872665)",-2.34293984324,0.729290756285,-0.175087856054,"(0.003, 0.0, 0.0, 0.0, 0.003, 0.0, 0.0, 0.0, 0.003)"
2022/03/09/18:23:59.229392,11972,1646846639,228782675,imu_iphone,-0.022798615928,0.0257662955308,-0.906779944477,0.420198112109,"(0.00872665, 0.0, 0.0, 0.0, 0.00872665, 0.0, 0.0, 0.0, 0.00872665)",-0.24377040565,-0.354976505041,0.365331798792,"(0.000872665, 0.0, 0.0, 0.0, 0.000872665, 0.0, 0.0, 0.0, 0.000872665)",-2.28289215446,0.103047052883,-0.252097440362,"(0.003, 0.0, 0.0, 0.0, 0.003, 0.0, 0.0, 0.0, 0.003)"
2022/03/09/18:23:59.240816,11973,1646846639,240385995,imu_iphone,-0.0288532015987,0.0290280533978,-0.904029652595,0.42550587787,"(0.00872665, 0.0, 0.0, 0.0, 0.00872665, 0.0, 0.0, 0.0, 0.00872665)",-0.214776217937,-0.415532201529,0.485046714544,"(0.000872665, 0.0, 0.0, 0.0, 0.000872665, 0.0, 0.0, 0.0, 0.000872665)",-2.23188659996,-0.421217810847,-0.250513429642,"(0.003, 0.0, 0.0, 0.0, 0.003, 0.0, 0.0, 0.0, 0.003)"
2022/03/09/18:23:59.268770,11974,1646846639,268059809,imu_iphone,-0.0349191991084,0.0329061917114,-0.900663624006,0.431859778717,"(0.00872665, 0.0, 0.0, 0.0, 0.00872665, 0.0, 0.0, 0.0, 0.00872665)",-0.173274323344,-0.449885547161,0.544615447521,"(0.000872665, 0.0, 0.0, 0.0, 0.000872665, 0.0, 0.0, 0.0, 0.000872665)",-1.59549874485,-0.868139762431,-0.327631187439,"(0.003, 0.0, 0.0, 0.0, 0.003, 0.0, 0.0, 0.0, 0.003)"
2022/03/09/18:23:59.297909,11975,1646846639,297330269,imu_iphone,-0.0409046536756,0.0371727664004,-0.896836415884,0.438895702748,"(0.00872665, 0.0, 0.0, 0.0, 0.00872665, 0.0, 0.0, 0.0, 0.00872665)",-0.139774024487,-0.478880733252,0.610826253891,"(0.000872665, 0.0, 0.0, 0.0, 0.000872665, 0.0, 0.0, 0.0, 0.000872665)",-1.35112342983,-0.753969953209,-0.339557753205,"(0.003, 0.0, 0.0, 0.0, 0.003, 0.0, 0.0, 0.0, 0.003)"
2022/03/09/18:23:59.482738,11976,1646846639,480713381,imu_iphone,-0.0673098089567,0.0648328854274,-0.862731300553,0.496951496256,"(0.00872665, 0.0, 0.0, 0.0, 0.00872665, 0.0, 0.0, 0.0, 0.00872665)",0.265597611666,-0.409197479486,0.976637542248,"(0.000872665, 0.0, 0.0, 0.0, 0.000872665, 0.0, 0.0, 0.0, 0.000872665)",-0.109480196089,-2.8721388799,-0.363559404016,"(0.003, 0.0, 0.0, 0.0, 0.003, 0.0, 0.0, 0.0, 0.003)"
2022/03/09/18:23:59.506360,11977,1646846639,506015488,imu_iphone,-0.0697071720066,0.0690529984284,-0.854490477056,0.510116279098,"(0.00872665, 0.0, 0.0, 0.0, 0.00872665, 0.0, 0.0, 0.0, 0.00872665)",0.317310124636,-0.402312994003,1.02504861355,"(0.000872665, 0.0, 0.0, 0.0, 0.000872665, 0.0, 0.0, 0.0, 0.000872665)",-0.141055452973,-3.04918526083,-0.368067022562,"(0.003, 0.0, 0.0, 0.0, 0.003, 0.0, 0.0, 0.0, 0.003)"
2022/03/09/18:23:59.537256,11978,1646846639,535912227,imu_iphone,-0.0716992269768,0.0734828173989,-0.846136131235,0.522984840905,"(0.00872665, 0.0, 0.0, 0.0, 0.00872665, 0.0, 0.0, 0.0, 0.00872665)",0.354605525732,-0.387895911932,0.914349555969,"(0.000872665, 0.0, 0.0, 0.0, 0.000872665, 0.0, 0.0, 0.0, 0.000872665)",0.0821007549763,-3.00120505571,-0.437175264359,"(0.003, 0.0, 0.0, 0.0, 0.003, 0.0, 0.0, 0.0, 0.003)"
2022/03/09/18:23:59.570701,11979,1646846639,570065229,imu_iphone,-0.0730498889666,0.0782245373328,-0.838592609443,0.534141433394,"(0.00872665, 0.0, 0.0, 0.0, 0.00872665, 0.0, 0.0, 0.0, 0.00872665)",0.371131449938,-0.357797086239,0.757852554321,"(0.000872665, 0.0, 0.0, 0.0, 0.000872665, 0.0, 0.0, 0.0, 0.000872665)",0.773504331261,-2.5313532114,-0.328338700533,"(0.003, 0.0, 0.0, 0.0, 0.003, 0.0, 0.0, 0.0, 0.003)"
2022/03/09/18:23:59.601216,11980,1646846639,600830025,imu_iphone,-0.0737433955699,0.0831048759595,-0.832039247384,0.543476017883,"(0.00872665, 0.0, 0.0, 0.0, 0.00872665, 0.0, 0.0, 0.0, 0.00872665)",0.378164023161,-0.328858613968,0.604261755943,"(0.000872665, 0.0, 0.0, 0.0, 0.000872665, 0.0, 0.0, 0.0, 0.000872665)",0.969719639271,-2.31887416542,-0.395779901147,"(0.003, 0.0, 0.0, 0.0, 0.003, 0.0, 0.0, 0.0, 0.003)"
2022/03/09/18:23:59.628731,11981,1646846639,626510856,imu_iphone,-0.0738359598175,0.0882285283234,-0.826565075471,0.550957488232,"(0.00872665, 0.0, 0.0, 0.0, 0.00872665, 0.0, 0.0, 0.0, 0.00872665)",0.379117906094,-0.308264136314,0.471175938845,"(0.000872665, 0.0, 0.0, 0.0, 0.000872665, 0.0, 0.0, 0.0, 0.000872665)",0.993589581549,-2.25489977896,-0.349803244472,"(0.003, 0.0, 0.0, 0.0, 0.003, 0.0, 0.0, 0.0, 0.003)"
2022/03/09/18:23:59.655683,11982,1646846639,655238377,imu_iphone,-0.0734309663109,0.0935340483527,-0.821887588668,0.557099691778,"(0.00872665, 0.0, 0.0, 0.0, 0.00872665, 0.0, 0.0, 0.0, 0.00872665)",0.396958321333,-0.287067979574,0.336124032736,"(0.000872665, 0.0, 0.0, 0.0, 0.000872665, 0.0, 0.0, 0.0, 0.000872665)",1.0237255463,-2.53521646678,-0.466796674132,"(0.003, 0.0, 0.0, 0.0, 0.003, 0.0, 0.0, 0.0, 0.003)"
2022/03/09/18:23:59.689919,11983,1646846639,689469831,imu_iphone,-0.071946656295,0.0993781490772,-0.818630532802,0.561063020434,"(0.00872665, 0.0, 0.0, 0.0, 0.00872665, 0.0, 0.0, 0.0, 0.00872665)",0.415142506361,-0.257991611958,0.0747535601258,"(0.000872665, 0.0, 0.0, 0.0, 0.000872665, 0.0, 0.0, 0.0, 0.000872665)",1.48673205525,-2.51097040236,-0.499501905441,"(0.003, 0.0, 0.0, 0.0, 0.003, 0.0, 0.0, 0.0, 0.003)"
2022/03/09/18:23:59.723405,11984,1646846639,722794790,imu_iphone,-0.0686581946035,0.105899483953,-0.817522093143,0.561897658685,"(0.00872665, 0.0, 0.0, 0.0, 0.00872665, 0.0, 0.0, 0.0, 0.00872665)",0.450857907534,-0.211787417531,-0.209711864591,"(0.000872665, 0.0, 0.0, 0.0, 0.000872665, 0.0, 0.0, 0.0, 0.000872665)",2.11707564354,-2.56126756668,-0.544537160397,"(0.003, 0.0, 0.0, 0.0, 0.003, 0.0, 0.0, 0.0, 0.003)"
2022/03/09/18:23:59.744914,11985,1646846639,744499226,imu_iphone,-0.0633401579078,0.112678963904,-0.8180979615,0.560363454267,"(0.00872665, 0.0, 0.0, 0.0, 0.00872665, 0.0, 0.0, 0.0, 0.00872665)",0.500724673271,-0.145861148834,-0.409671515226,"(0.000872665, 0.0, 0.0, 0.0, 0.000872665, 0.0, 0.0, 0.0, 0.000872665)",2.70543476164,-2.87011837453,-0.584237415791,"(0.003, 0.0, 0.0, 0.0, 0.003, 0.0, 0.0, 0.0, 0.003)"
2022/03/09/18:23:59.775422,11986,1646846639,774756846,imu_iphone,-0.0562841863848,0.119441736879,-0.818642261085,0.558919144617,"(0.00872665, 0.0, 0.0, 0.0, 0.00872665, 0.0, 0.0, 0.0, 0.00872665)",0.622770011425,-0.0927938520908,-0.22167147696,"(0.000872665, 0.0, 0.0, 0.0, 0.000872665, 0.0, 0.0, 0.0, 0.000872665)",2.97005284488,-4.52602061123,-0.83318846941,"(0.003, 0.0, 0.0, 0.0, 0.003, 0.0, 0.0, 0.0, 0.003)"
2022/03/09/18:23:59.808371,11987,1646846639,807851412,imu_iphone,-0.0481515825202,0.126023597561,-0.818119457316,0.558999133738,"(0.00872665, 0.0, 0.0, 0.0, 0.00872665, 0.0, 0.0, 0.0, 0.00872665)",0.683910608292,-0.0333164446056,-0.337403476238,"(0.000872665, 0.0, 0.0, 0.0, 0.000872665, 0.0, 0.0, 0.0, 0.000872665)",2.9925552696,-2.67715002537,-0.858850144744,"(0.003, 0.0, 0.0, 0.0, 0.003, 0.0, 0.0, 0.0, 0.003)"
2022/03/09/18:23:59.835493,11988,1646846639,834117822,imu_iphone,-0.037030261294,0.132396367287,-0.819754340755,0.555970127337,"(0.00872665, 0.0, 0.0, 0.0, 0.00872665, 0.0, 0.0, 0.0, 0.00872665)",0.716417610645,0.0756630897522,-0.733068585396,"(0.000872665, 0.0, 0.0, 0.0, 0.000872665, 0.0, 0.0, 0.0, 0.000872665)",4.24008913457,-1.76913868412,-0.976458701491,"(0.003, 0.0, 0.0, 0.0, 0.003, 0.0, 0.0, 0.0, 0.003)"
2022/03/09/18:23:59.865559,11989,1646846639,864090649,imu_iphone,-0.0235621110289,0.137762775151,-0.823239150615,0.550221360547,"(0.00872665, 0.0, 0.0, 0.0, 0.00872665, 0.0, 0.0, 0.0, 0.00872665)",0.699649691582,0.14292140305,-0.732905566692,"(0.000872665, 0.0, 0.0, 0.0, 0.000872665, 0.0, 0.0, 0.0, 0.000872665)",3.18243658125,-0.122472270727,-0.949374983311,"(0.003, 0.0, 0.0, 0.0, 0.003, 0.0, 0.0, 0.0, 0.003)"
2022/03/09/18:23:59.895457,11990,1646846639,893350525,imu_iphone,-0.0104337128264,0.141631430369,-0.826608804016,0.544563642462,"(0.00872665, 0.0, 0.0, 0.0, 0.00872665, 0.0, 0.0, 0.0, 0.00872665)",0.617935836315,0.180259466171,-0.728006899357,"(0.000872665, 0.0, 0.0, 0.0, 0.000872665, 0.0, 0.0, 0.0, 0.000872665)",2.2843723771,1.97900256291,-0.842223587036,"(0.003, 0.0, 0.0, 0.0, 0.003, 0.0, 0.0, 0.0, 0.003)"
2022/03/09/18:23:59.928497,11991,1646846639,927857203,imu_iphone,0.00206310076857,0.144000014183,-0.830139728427,0.538635099875,"(0.00872665, 0.0, 0.0, 0.0, 0.00872665, 0.0, 0.0, 0.0, 0.00872665)",0.544804573059,0.21034373343,-0.664208173752,"(0.000872665, 0.0, 0.0, 0.0, 0.000872665, 0.0, 0.0, 0.0, 0.000872665)",2.2382512942,2.036197249,-0.809586183429,"(0.003, 0.0, 0.0, 0.0, 0.003, 0.0, 0.0, 0.0, 0.003)"
2022/03/09/18:23:59.956270,11992,1646846639,954420529,imu_iphone,0.013797485088,0.145072757038,-0.833581151262,0.532828292072,"(0.00872665, 0.0, 0.0, 0.0, 0.00872665, 0.0, 0.0, 0.0, 0.00872665)",0.481256783009,0.244266524911,-0.619013607502,"(0.000872665, 0.0, 0.0, 0.0, 0.000872665, 0.0, 0.0, 0.0, 0.000872665)",2.12916066885,2.12980342403,-0.777109578252,"(0.003, 0.0, 0.0, 0.0, 0.003, 0.0, 0.0, 0.0, 0.003)"
2022/03/09/18:23:59.984329,11993,1646846639,983506284,imu_iphone,0.0249304444245,0.144973366283,-0.837009840113,0.527044327892,"(0.00872665, 0.0, 0.0, 0.0, 0.00872665, 0.0, 0.0, 0.0, 0.00872665)",0.430019885302,0.275230765343,-0.586325526237,"(0.000872665, 0.0, 0.0, 0.0, 0.000872665, 0.0, 0.0, 0.0, 0.000872665)",2.03376100659,2.19338122308,-0.729319115281,"(0.003, 0.0, 0.0, 0.0, 0.003, 0.0, 0.0, 0.0, 0.003)"
2022/03/09/18:24:00.013478,11994,1646846640,12542618,imu_iphone,0.035711141384,0.143772984311,-0.840593555114,0.521014892746,"(0.00872665, 0.0, 0.0, 0.0, 0.00872665, 0.0, 0.0, 0.0, 0.00872665)",0.389042317867,0.310938596725,-0.587835609913,"(0.000872665, 0.0, 0.0, 0.0, 0.000872665, 0.0, 0.0, 0.0, 0.000872665)",1.93082384482,2.24471904561,-0.768725840449,"(0.003, 0.0, 0.0, 0.0, 0.003, 0.0, 0.0, 0.0, 0.003)"
2022/03/09/18:24:00.051653,11995,1646846640,47815871,imu_iphone,0.0463771014259,0.141485909533,-0.844471665396,0.514488588999,"(0.00872665, 0.0, 0.0, 0.0, 0.00872665, 0.0, 0.0, 0.0, 0.00872665)",0.352392762899,0.352916836739,-0.597162604332,"(0.000872665, 0.0, 0.0, 0.0, 0.000872665, 0.0, 0.0, 0.0, 0.000872665)",1.84343852252,2.30048043296,-0.738376452327,"(0.003, 0.0, 0.0, 0.0, 0.003, 0.0, 0.0, 0.0, 0.003)"
2022/03/09/18:24:00.074277,11996,1646846640,72512746,imu_iphone,0.0570361992362,0.138003806599,-0.848708101177,0.507342468495,"(0.00872665, 0.0, 0.0, 0.0, 0.00872665, 0.0, 0.0, 0.0, 0.00872665)",0.322596371174,0.398580640554,-0.618755578995,"(0.000872665, 0.0, 0.0, 0.0, 0.000872665, 0.0, 0.0, 0.0, 0.000872665)",1.765276452,2.37553631634,-0.725191565752,"(0.003, 0.0, 0.0, 0.0, 0.003, 0.0, 0.0, 0.0, 0.003)"
2022/03/09/18:24:00.104574,11997,1646846640,102368384,imu_iphone,0.0677319280473,0.133268424164,-0.853297509636,0.499535056921,"(0.00872665, 0.0, 0.0, 0.0, 0.00872665, 0.0, 0.0, 0.0, 0.00872665)",0.290892511606,0.453997284174,-0.631175994873,"(0.000872665, 0.0, 0.0, 0.0, 0.000872665, 0.0, 0.0, 0.0, 0.000872665)",1.67343598992,2.47452295303,-0.677073073983,"(0.003, 0.0, 0.0, 0.0, 0.003, 0.0, 0.0, 0.0, 0.003)"
2022/03/09/18:24:00.133388,11998,1646846640,131716507,imu_iphone,0.0783908841808,0.127191327737,-0.858154838502,0.491169531405,"(0.00872665, 0.0, 0.0, 0.0, 0.00872665, 0.0, 0.0, 0.0, 0.00872665)",0.260290682316,0.50897115469,-0.634993910789,"(0.000872665, 0.0, 0.0, 0.0, 0.000872665, 0.0, 0.0, 0.0, 0.000872665)",1.54625334844,2.58898716956,-0.671486644149,"(0.003, 0.0, 0.0, 0.0, 0.003, 0.0, 0.0, 0.0, 0.003)"
2022/03/09/18:24:00.172609,11999,1646846640,170013361,imu_iphone,0.0887137737074,0.119768405472,-0.86309334653,0.482550795855,"(0.00872665, 0.0, 0.0, 0.0, 0.00872665, 0.0, 0.0, 0.0, 0.00872665)",0.216387420893,0.56538695097,-0.598936080933,"(0.000872665, 0.0, 0.0, 0.0, 0.000872665, 0.0, 0.0, 0.0, 0.000872665)",1.39255899265,2.72301353842,-0.660233677626,"(0.003, 0.0, 0.0, 0.0, 0.003, 0.0, 0.0, 0.0, 0.003)"
2022/03/09/18:24:00.196469,12000,1646846640,194299518,imu_iphone,0.0983661087496,0.111171464739,-0.867782805686,0.474255222674,"(0.00872665, 0.0, 0.0, 0.0, 0.00872665, 0.0, 0.0, 0.0, 0.00872665)",0.170148521662,0.621686398983,-0.513216435909,"(0.000872665, 0.0, 0.0, 0.0, 0.000872665, 0.0, 0.0, 0.0, 0.000872665)",1.20593282595,2.86323854059,-0.696975826621,"(0.003, 0.0, 0.0, 0.0, 0.003, 0.0, 0.0, 0.0, 0.003)"
2022/03/09/18:24:00.222529,12001,1646846640,222075732,imu_iphone,0.106900324158,0.101666091813,-0.871848440367,0.467029574546,"(0.00872665, 0.0, 0.0, 0.0, 0.00872665, 0.0, 0.0, 0.0, 0.00872665)",0.107361704111,0.668450713158,-0.394367784262,"(0.000872665, 0.0, 0.0, 0.0, 0.000872665, 0.0, 0.0, 0.0, 0.000872665)",0.964448885992,3.03830096126,-0.696891626716,"(0.003, 0.0, 0.0, 0.0, 0.003, 0.0, 0.0, 0.0, 0.003)"
2022/03/09/18:24:00.253050,12002,1646846640,250750308,imu_iphone,0.114036970374,0.0915825701048,-0.875044232103,0.461417158442,"(0.00872665, 0.0, 0.0, 0.0, 0.00872665, 0.0, 0.0, 0.0, 0.00872665)",0.0357654839754,0.705801427364,-0.243209138513,"(0.000872665, 0.0, 0.0, 0.0, 0.000872665, 0.0, 0.0, 0.0, 0.000872665)",0.697866869196,3.15920150042,-0.721928234696,"(0.003, 0.0, 0.0, 0.0, 0.003, 0.0, 0.0, 0.0, 0.003)"
2022/03/09/18:24:00.286306,12003,1646846640,284098634,imu_iphone,0.11950429494,0.0813119544135,-0.877098038586,0.458045980517,"(0.00872665, 0.0, 0.0, 0.0, 0.00872665, 0.0, 0.0, 0.0, 0.00872665)",-0.046196591109,0.73625510931,-0.0511186569929,"(0.000872665, 0.0, 0.0, 0.0, 0.000872665, 0.0, 0.0, 0.0, 0.000872665)",0.407030784599,3.29499255896,-0.745520580411,"(0.003, 0.0, 0.0, 0.0, 0.003, 0.0, 0.0, 0.0, 0.003)"
2022/03/09/18:24:00.311378,12004,1646846640,310860269,imu_iphone,0.123221529806,0.0712198088901,-0.877782349256,0.45743014849,"(0.00872665, 0.0, 0.0, 0.0, 0.00872665, 0.0, 0.0, 0.0, 0.00872665)",-0.136414900422,0.749326109886,0.15123385191,"(0.000872665, 0.0, 0.0, 0.0, 0.000872665, 0.0, 0.0, 0.0, 0.000872665)",0.0609412895143,3.35707507879,-0.77119161129,"(0.003, 0.0, 0.0, 0.0, 0.003, 0.0, 0.0, 0.0, 0.003)"
2022/03/09/18:24:00.342974,12005,1646846640,341538133,imu_iphone,0.125223218107,0.0616553631651,-0.87696712495,0.459833038828,"(0.00872665, 0.0, 0.0, 0.0, 0.00872665, 0.0, 0.0, 0.0, 0.00872665)",-0.222033336759,0.75058978796,0.360029548407,"(0.000872665, 0.0, 0.0, 0.0, 0.000872665, 0.0, 0.0, 0.0, 0.000872665)",-0.266795659438,3.38475082755,-0.788795823455,"(0.003, 0.0, 0.0, 0.0, 0.003, 0.0, 0.0, 0.0, 0.003)"
2022/03/09/18:24:00.371599,12006,1646846640,369977726,imu_iphone,0.125629580612,0.0527399708509,-0.874648078966,0.46521655378,"(0.00872665, 0.0, 0.0, 0.0, 0.00872665, 0.0, 0.0, 0.0, 0.00872665)",-0.314372092485,0.734107732773,0.557716608047,"(0.000872665, 0.0, 0.0, 0.0, 0.000872665, 0.0, 0.0, 0.0, 0.000872665)",-0.611821874902,3.34454391092,-0.796831651926,"(0.003, 0.0, 0.0, 0.0, 0.003, 0.0, 0.0, 0.0, 0.003)"
2022/03/09/18:24:00.402519,12007,1646846640,400822307,imu_iphone,0.124467405401,0.0449076369422,-0.870489063323,0.474067463313,"(0.00872665, 0.0, 0.0, 0.0, 0.00872665, 0.0, 0.0, 0.0, 0.00872665)",-0.400833010674,0.698138833046,0.810307085514,"(0.000872665, 0.0, 0.0, 0.0, 0.000872665, 0.0, 0.0, 0.0, 0.000872665)",-1.01806566082,3.22096388519,-0.835400471091,"(0.003, 0.0, 0.0, 0.0, 0.003, 0.0, 0.0, 0.0, 0.003)"
2022/03/09/18:24:00.443322,12008,1646846640,437681131,imu_iphone,0.121919724697,0.0382982949018,-0.864379881012,0.486329356135,"(0.00872665, 0.0, 0.0, 0.0, 0.00872665, 0.0, 0.0, 0.0, 0.00872665)",-0.470654726028,0.658108174801,1.02230143547,"(0.000872665, 0.0, 0.0, 0.0, 0.000872665, 0.0, 0.0, 0.0, 0.000872665)",-1.32948025346,3.08812420875,-0.818431851268,"(0.003, 0.0, 0.0, 0.0, 0.003, 0.0, 0.0, 0.0, 0.003)"
2022/03/09/18:24:00.462455,12009,1646846640,460009990,imu_iphone,0.118294217741,0.0326198782506,-0.856565815735,0.501235897463,"(0.00872665, 0.0, 0.0, 0.0, 0.00872665, 0.0, 0.0, 0.0, 0.00872665)",-0.53685605526,0.607219159603,1.17136907578,"(0.000872665, 0.0, 0.0, 0.0, 0.000872665, 0.0, 0.0, 0.0, 0.000872665)",-1.55487755299,2.93826416463,-0.851972064972,"(0.003, 0.0, 0.0, 0.0, 0.003, 0.0, 0.0, 0.0, 0.003)"
2022/03/09/18:24:00.515019,12010,1646846640,511294689,imu_iphone,0.113928113843,0.0273171536788,-0.84762050396,0.51750713933,"(0.00872665, 0.0, 0.0, 0.0, 0.00872665, 0.0, 0.0, 0.0, 0.00872665)",-0.590682566166,0.573204696178,1.21524810791,"(0.000872665, 0.0, 0.0, 0.0, 0.000872665, 0.0, 0.0, 0.0, 0.000872665)",-1.65255061269,2.74293704867,-0.902932888269,"(0.003, 0.0, 0.0, 0.0, 0.003, 0.0, 0.0, 0.0, 0.003)"
2022/03/09/18:24:00.523686,12011,1646846640,520909252,imu_iphone,0.109252481384,0.0216967205008,-0.838365947101,0.533606302785,"(0.00872665, 0.0, 0.0, 0.0, 0.00872665, 0.0, 0.0, 0.0, 0.00872665)",-0.634744644165,0.545278549194,1.15228784084,"(0.000872665, 0.0, 0.0, 0.0, 0.000872665, 0.0, 0.0, 0.0, 0.000872665)",-1.71244568914,2.50516587138,-0.973454402089,"(0.003, 0.0, 0.0, 0.0, 0.003, 0.0, 0.0, 0.0, 0.003)"
2022/03/09/18:24:00.556375,12012,1646846640,550547736,imu_iphone,0.104555111806,0.01541102713,-0.82935651882,0.548633296045,"(0.00872665, 0.0, 0.0, 0.0, 0.00872665, 0.0, 0.0, 0.0, 0.00872665)",-0.65923255682,0.524054169655,1.059877038,"(0.000872665, 0.0, 0.0, 0.0, 0.000872665, 0.0, 0.0, 0.0, 0.000872665)",-1.75964353681,2.19846610799,-1.01009597898,"(0.003, 0.0, 0.0, 0.0, 0.003, 0.0, 0.0, 0.0, 0.003)"
2022/03/09/18:24:00.584838,12013,1646846640,579070045,imu_iphone,0.100043826931,0.00833568270739,-0.821047601777,0.561963152443,"(0.00872665, 0.0, 0.0, 0.0, 0.00872665, 0.0, 0.0, 0.0, 0.00872665)",-0.670730829239,0.50197571516,0.906419575214,"(0.000872665, 0.0, 0.0, 0.0, 0.000872665, 0.0, 0.0, 0.0, 0.000872665)",-1.86556204766,1.87654808879,-1.02775924802,"(0.003, 0.0, 0.0, 0.0, 0.003, 0.0, 0.0, 0.0, 0.003)"
2022/03/09/18:24:00.613289,12014,1646846640,608158526,imu_iphone,0.0958044243777,0.000475415293835,-0.813813187577,0.573174826711,"(0.00872665, 0.0, 0.0, 0.0, 0.00872665, 0.0, 0.0, 0.0, 0.00872665)",-0.677369713783,0.477398902178,0.72221583128,"(0.000872665, 0.0, 0.0, 0.0, 0.000872665, 0.0, 0.0, 0.0, 0.000872665)",-1.97616242409,1.58909428954,-1.03301297128,"(0.003, 0.0, 0.0, 0.0, 0.003, 0.0, 0.0, 0.0, 0.003)"
2022/03/09/18:24:00.646611,12015,1646846640,640180591,imu_iphone,0.0917383382091,-0.00810853381764,-0.807973903895,0.581976373752,"(0.00872665, 0.0, 0.0, 0.0, 0.00872665, 0.0, 0.0, 0.0, 0.00872665)",-0.675118148327,0.453008830547,0.51659476757,"(0.000872665, 0.0, 0.0, 0.0, 0.000872665, 0.0, 0.0, 0.0, 0.000872665)",-2.08375660077,1.30735351235,-1.01379843593,"(0.003, 0.0, 0.0, 0.0, 0.003, 0.0, 0.0, 0.0, 0.003)"
2022/03/09/18:24:00.670049,12016,1646846640,668466779,imu_iphone,0.0877336326982,-0.0173304618738,-0.803721108399,0.58824726493,"(0.00872665, 0.0, 0.0, 0.0, 0.00872665, 0.0, 0.0, 0.0, 0.00872665)",-0.670011162758,0.42005905509,0.302877783775,"(0.000872665, 0.0, 0.0, 0.0, 0.000872665, 0.0, 0.0, 0.0, 0.000872665)",-2.19476525903,1.05711665601,-0.998461773992,"(0.003, 0.0, 0.0, 0.0, 0.003, 0.0, 0.0, 0.0, 0.003)"
2022/03/09/18:24:00.698838,12017,1646846640,698312042,imu_iphone,0.0835693061835,-0.0269981031007,-0.801112924273,0.592034928071,"(0.00872665, 0.0, 0.0, 0.0, 0.00872665, 0.0, 0.0, 0.0, 0.00872665)",-0.665211319923,0.383654385805,0.0887589380145,"(0.000872665, 0.0, 0.0, 0.0, 0.000872665, 0.0, 0.0, 0.0, 0.000872665)",-2.31790206581,0.832423945963,-0.964133355618,"(0.003, 0.0, 0.0, 0.0, 0.003, 0.0, 0.0, 0.0, 0.003)"
2022/03/09/18:24:00.730214,12018,1646846640,727507867,imu_iphone,0.0789579191503,-0.036977080106,-0.800071440276,0.593535199466,"(0.00872665, 0.0, 0.0, 0.0, 0.00872665, 0.0, 0.0, 0.0, 0.00872665)",-0.661885917187,0.344897508621,-0.104565560818,"(0.000872665, 0.0, 0.0, 0.0, 0.000872665, 0.0, 0.0, 0.0, 0.000872665)",-2.42963987187,0.634592102095,-0.946685848832,"(0.003, 0.0, 0.0, 0.0, 0.003, 0.0, 0.0, 0.0, 0.003)"
2022/03/09/18:24:00.764596,12019,1646846640,761261005,imu_iphone,0.0736355791038,-0.0470474706165,-0.800422475734,0.593033049111,"(0.00872665, 0.0, 0.0, 0.0, 0.00872665, 0.0, 0.0, 0.0, 0.00872665)",-0.665448069572,0.289512336254,-0.275577485561,"(0.000872665, 0.0, 0.0, 0.0, 0.000872665, 0.0, 0.0, 0.0, 0.000872665)",-2.56560386181,0.464233072065,-0.91127861917,"(0.003, 0.0, 0.0, 0.0, 0.003, 0.0, 0.0, 0.0, 0.003)"
2022/03/09/18:24:00.789819,12020,1646846640,789098613,imu_iphone,0.0673048775257,-0.0569269267706,-0.801907578077,0.590909142501,"(0.00872665, 0.0, 0.0, 0.0, 0.00872665, 0.0, 0.0, 0.0, 0.00872665)",-0.67724186182,0.230140730739,-0.412716150284,"(0.000872665, 0.0, 0.0, 0.0, 0.000872665, 0.0, 0.0, 0.0, 0.000872665)",-2.6965429008,0.30823432859,-0.896562346816,"(0.003, 0.0, 0.0, 0.0, 0.003, 0.0, 0.0, 0.0, 0.003)"
2022/03/09/18:24:00.817617,12021,1646846640,817187166,imu_iphone,0.0597509705145,-0.0663705414418,-0.804259503366,0.587529934554,"(0.00872665, 0.0, 0.0, 0.0, 0.00872665, 0.0, 0.0, 0.0, 0.00872665)",-0.696927845478,0.159262672067,-0.516228914261,"(0.000872665, 0.0, 0.0, 0.0, 0.000872665, 0.0, 0.0, 0.0, 0.000872665)",-2.80963740706,0.125227862466,-0.880967237949,"(0.003, 0.0, 0.0, 0.0, 0.003, 0.0, 0.0, 0.0, 0.003)"
2022/03/09/18:24:00.848773,12022,1646846640,847814363,imu_iphone,0.0508747036193,-0.0751162902822,-0.807182939186,0.583288102187,"(0.00872665, 0.0, 0.0, 0.0, 0.00872665, 0.0, 0.0, 0.0, 0.00872665)",-0.712932825089,0.0828664973378,-0.586593806744,"(0.000872665, 0.0, 0.0, 0.0, 0.000872665, 0.0, 0.0, 0.0, 0.000872665)",-2.85916741669,-0.0949555662274,-0.84406662941,"(0.003, 0.0, 0.0, 0.0, 0.003, 0.0, 0.0, 0.0, 0.003)"
2022/03/09/18:24:00.881603,12023,1646846640,881168296,imu_iphone,0.0406506741286,-0.082916304727,-0.810520872178,0.578384236357,"(0.00872665, 0.0, 0.0, 0.0, 0.00872665, 0.0, 0.0, 0.0, 0.00872665)",-0.731881082058,-0.00229149870574,-0.644721388817,"(0.000872665, 0.0, 0.0, 0.0, 0.000872665, 0.0, 0.0, 0.0, 0.000872665)",-2.88951329648,-0.346574119627,-0.81696069181,"(0.003, 0.0, 0.0, 0.0, 0.003, 0.0, 0.0, 0.0, 0.003)"
2022/03/09/18:24:00.908042,12024,1646846640,906455892,imu_iphone,0.029117272654,-0.0895695875134,-0.814215840824,0.572871746534,"(0.00872665, 0.0, 0.0, 0.0, 0.00872665, 0.0, 0.0, 0.0, 0.00872665)",-0.742466211319,-0.0918545648456,-0.68870973587,"(0.000872665, 0.0, 0.0, 0.0, 0.000872665, 0.0, 0.0, 0.0, 0.000872665)",-2.89697025061,-0.629161866009,-0.791955074072,"(0.003, 0.0, 0.0, 0.0, 0.003, 0.0, 0.0, 0.0, 0.003)"
2022/03/09/18:24:00.939719,12025,1646846640,938173787,imu_iphone,0.0163792966781,-0.0948706791218,-0.818264631031,0.566722389259,"(0.00872665, 0.0, 0.0, 0.0, 0.00872665, 0.0, 0.0, 0.0, 0.00872665)",-0.742773473263,-0.180063843727,-0.72909194231,"(0.000872665, 0.0, 0.0, 0.0, 0.000872665, 0.0, 0.0, 0.0, 0.000872665)",-2.83356479824,-0.97259193778,-0.804557577968,"(0.003, 0.0, 0.0, 0.0, 0.003, 0.0, 0.0, 0.0, 0.003)"
2022/03/09/18:24:00.970559,12026,1646846640,969142247,imu_iphone,0.00259876384731,-0.098612415833,-0.82276279373,0.559759075964,"(0.00872665, 0.0, 0.0, 0.0, 0.00872665, 0.0, 0.0, 0.0, 0.00872665)",-0.733928799629,-0.26795193553,-0.777839958668,"(0.000872665, 0.0, 0.0, 0.0, 0.000872665, 0.0, 0.0, 0.0, 0.000872665)",-2.7322913155,-1.34013621926,-0.812283504009,"(0.003, 0.0, 0.0, 0.0, 0.003, 0.0, 0.0, 0.0, 0.003)"
2022/03/09/18:24:01.010439,12027,1646846641,4569537,imu_iphone,-0.0120342949656,-0.100633951257,-0.827827639786,0.551751196107,"(0.00872665, 0.0, 0.0, 0.0, 0.00872665, 0.0, 0.0, 0.0, 0.00872665)",-0.707248687744,-0.344499230385,-0.837117373943,"(0.000872665, 0.0, 0.0, 0.0, 0.000872665, 0.0, 0.0, 0.0, 0.000872665)",-2.55174186766,-1.6818347843,-0.823643474579,"(0.003, 0.0, 0.0, 0.0, 0.003, 0.0, 0.0, 0.0, 0.003)"
2022/03/09/18:24:01.026471,12028,1646846641,26059614,imu_iphone,-0.0272831426343,-0.100752253091,-0.833678532109,0.542295785274,"(0.00872665, 0.0, 0.0, 0.0, 0.00872665, 0.0, 0.0, 0.0, 0.00872665)",-0.662854254246,-0.420715540648,-0.919432640076,"(0.000872665, 0.0, 0.0, 0.0, 0.000872665, 0.0, 0.0, 0.0, 0.000872665)",-2.32573148757,-2.05668355376,-0.816115184426,"(0.003, 0.0, 0.0, 0.0, 0.003, 0.0, 0.0, 0.0, 0.003)"
2022/03/09/18:24:01.058110,12029,1646846641,55553023,imu_iphone,-0.0428896703898,-0.09872965482,-0.840502361215,0.531007261933,"(0.00872665, 0.0, 0.0, 0.0, 0.00872665, 0.0, 0.0, 0.0, 0.00872665)",-0.600841999054,-0.481287270784,-1.01516056061,"(0.000872665, 0.0, 0.0, 0.0, 0.000872665, 0.0, 0.0, 0.0, 0.000872665)",-2.05156797096,-2.40274443403,-0.795107892752,"(0.003, 0.0, 0.0, 0.0, 0.003, 0.0, 0.0, 0.0, 0.003)"
2022/03/09/18:24:01.092046,12030,1646846641,90669862,imu_iphone,-0.0584473156894,-0.0943603910886,-0.84839563415,0.517595281893,"(0.00872665, 0.0, 0.0, 0.0, 0.00872665, 0.0, 0.0, 0.0, 0.00872665)",-0.523077905178,-0.532983958721,-1.13293111324,"(0.000872665, 0.0, 0.0, 0.0, 0.000872665, 0.0, 0.0, 0.0, 0.000872665)",-1.73949841708,-2.71924880862,-0.773562072515,"(0.003, 0.0, 0.0, 0.0, 0.003, 0.0, 0.0, 0.0, 0.003)"
2022/03/09/18:24:01.121335,12031,1646846641,120874940,imu_iphone,-0.0734963847319,-0.0874938861633,-0.857403131371,0.501799732593,"(0.00872665, 0.0, 0.0, 0.0, 0.00872665, 0.0, 0.0, 0.0, 0.00872665)",-0.428326398134,-0.56989890337,-1.25768828392,"(0.000872665, 0.0, 0.0, 0.0, 0.000872665, 0.0, 0.0, 0.0, 0.000872665)",-1.37305092707,-3.0192638889,-0.725450597405,"(0.003, 0.0, 0.0, 0.0, 0.003, 0.0, 0.0, 0.0, 0.003)"
2022/03/09/18:24:01.147095,12032,1646846641,145110082,imu_iphone,-0.0874894068855,-0.0780265420418,-0.867401153874,0.483603867518,"(0.00872665, 0.0, 0.0, 0.0, 0.00872665, 0.0, 0.0, 0.0, 0.00872665)",-0.321313679218,-0.588810563087,-1.37307560444,"(0.000872665, 0.0, 0.0, 0.0, 0.000872665, 0.0, 0.0, 0.0, 0.000872665)",-0.996525029987,-3.23922181606,-0.700732077956,"(0.003, 0.0, 0.0, 0.0, 0.003, 0.0, 0.0, 0.0, 0.003)"
2022/03/09/18:24:01.174986,12033,1646846641,174319524,imu_iphone,-0.0997910837951,-0.0661176537112,-0.878154156133,0.463158151746,"(0.00872665, 0.0, 0.0, 0.0, 0.00872665, 0.0, 0.0, 0.0, 0.00872665)",-0.208608075976,-0.592915594578,-1.48404383659,"(0.000872665, 0.0, 0.0, 0.0, 0.000872665, 0.0, 0.0, 0.0, 0.000872665)",-0.560018138923,-3.40345928639,-0.618998528123,"(0.003, 0.0, 0.0, 0.0, 0.003, 0.0, 0.0, 0.0, 0.003)"
2022/03/09/18:24:01.211602,12034,1646846641,208465963,imu_iphone,-0.109831674169,-0.0520209574718,-0.889340816638,0.440798973678,"(0.00872665, 0.0, 0.0, 0.0, 0.00872665, 0.0, 0.0, 0.0, 0.00872665)",-0.0888438969851,-0.584693908691,-1.57493102551,"(0.000872665, 0.0, 0.0, 0.0, 0.000872665, 0.0, 0.0, 0.0, 0.000872665)",-0.159461647309,-3.4731399706,-0.61115273416,"(0.003, 0.0, 0.0, 0.0, 0.003, 0.0, 0.0, 0.0, 0.003)"
2022/03/09/18:24:01.238751,12035,1646846641,234599124,imu_iphone,-0.117112615095,-0.0361846392904,-0.900582741386,0.417044401932,"(0.00872665, 0.0, 0.0, 0.0, 0.00872665, 0.0, 0.0, 0.0, 0.00872665)",0.0330758467317,-0.56286329031,-1.63988876343,"(0.000872665, 0.0, 0.0, 0.0, 0.000872665, 0.0, 0.0, 0.0, 0.000872665)",0.216962800585,-3.47114314646,-0.572906096578,"(0.003, 0.0, 0.0, 0.0, 0.003, 0.0, 0.0, 0.0, 0.003)"
2022/03/09/18:24:01.269142,12036,1646846641,264836488,imu_iphone,-0.12130264632,-0.0192693978312,-0.911490200767,0.392555693131,"(0.00872665, 0.0, 0.0, 0.0, 0.00872665, 0.0, 0.0, 0.0, 0.00872665)",0.143961459398,-0.531004905701,-1.67124462128,"(0.000872665, 0.0, 0.0, 0.0, 0.000872665, 0.0, 0.0, 0.0, 0.000872665)",0.555233983621,-3.38934323072,-0.594160140753,"(0.003, 0.0, 0.0, 0.0, 0.003, 0.0, 0.0, 0.0, 0.003)"
2022/03/09/18:24:01.294968,12037,1646846641,293498556,imu_iphone,-0.122283518847,-0.0019781572001,-0.921705078901,0.368106744628,"(0.00872665, 0.0, 0.0, 0.0, 0.00872665, 0.0, 0.0, 0.0, 0.00872665)",0.251286625862,-0.487654805183,-1.66469621658,"(0.000872665, 0.0, 0.0, 0.0, 0.000872665, 0.0, 0.0, 0.0, 0.000872665)",0.856819845289,-3.23769101501,-0.605111390948,"(0.003, 0.0, 0.0, 0.0, 0.003, 0.0, 0.0, 0.0, 0.003)"
2022/03/09/18:24:01.328459,12038,1646846641,327509853,imu_iphone,-0.120170834421,0.0150013831993,-0.930950328809,0.344478467174,"(0.00872665, 0.0, 0.0, 0.0, 0.00872665, 0.0, 0.0, 0.0, 0.00872665)",0.34482216835,-0.447520703077,-1.61652600765,"(0.000872665, 0.0, 0.0, 0.0, 0.000872665, 0.0, 0.0, 0.0, 0.000872665)",1.10685526505,-3.03270868421,-0.655383996964,"(0.003, 0.0, 0.0, 0.0, 0.003, 0.0, 0.0, 0.0, 0.003)"
2022/03/09/18:24:01.358173,12039,1646846641,353756011,imu_iphone,-0.115300954166,0.0310487481964,-0.939011868977,0.32248779066,"(0.00872665, 0.0, 0.0, 0.0, 0.00872665, 0.0, 0.0, 0.0, 0.00872665)",0.425473302603,-0.405396342278,-1.51781606674,"(0.000872665, 0.0, 0.0, 0.0, 0.000872665, 0.0, 0.0, 0.0, 0.000872665)",1.30784394756,-2.79253839433,-0.692739518881,"(0.003, 0.0, 0.0, 0.0, 0.003, 0.0, 0.0, 0.0, 0.003)"
2022/03/09/18:24:01.387720,12040,1646846641,386232196,imu_iphone,-0.108162174445,0.0456764164954,-0.945784207718,0.302831374574,"(0.00872665, 0.0, 0.0, 0.0, 0.00872665, 0.0, 0.0, 0.0, 0.00872665)",0.499457418919,-0.362977206707,-1.37947976589,"(0.000872665, 0.0, 0.0, 0.0, 0.000872665, 0.0, 0.0, 0.0, 0.000872665)",1.50041424751,-2.53608653247,-0.723277772069,"(0.003, 0.0, 0.0, 0.0, 0.003, 0.0, 0.0, 0.0, 0.003)"
2022/03/09/18:24:01.416797,12041,1646846641,412946237,imu_iphone,-0.0993478721968,0.0585936611966,-0.951242389795,0.286067647619,"(0.00872665, 0.0, 0.0, 0.0, 0.00872665, 0.0, 0.0, 0.0, 0.00872665)",0.556101500988,-0.325254052877,-1.19979405403,"(0.000872665, 0.0, 0.0, 0.0, 0.000872665, 0.0, 0.0, 0.0, 0.000872665)",1.66178775162,-2.2706024766,-0.769202388525,"(0.003, 0.0, 0.0, 0.0, 0.003, 0.0, 0.0, 0.0, 0.003)"
2022/03/09/18:24:01.451346,12042,1646846641,448696604,imu_iphone,-0.0894243540779,0.069695039162,-0.955413808812,0.272635911693,"(0.00872665, 0.0, 0.0, 0.0, 0.00872665, 0.0, 0.0, 0.0, 0.00872665)",0.606856048107,-0.288158804178,-0.988659203053,"(0.000872665, 0.0, 0.0, 0.0, 0.000872665, 0.0, 0.0, 0.0, 0.000872665)",1.78987934276,-2.00012489855,-0.804698495865,"(0.003, 0.0, 0.0, 0.0, 0.003, 0.0, 0.0, 0.0, 0.003)"
2022/03/09/18:24:01.475892,12043,1646846641,472859972,imu_iphone,-0.0789388412739,0.0790378897021,-0.958360580851,0.262805381226,"(0.00872665, 0.0, 0.0, 0.0, 0.00872665, 0.0, 0.0, 0.0, 0.00872665)",0.649929106236,-0.25243088603,-0.7577059865,"(0.000872665, 0.0, 0.0, 0.0, 0.000872665, 0.0, 0.0, 0.0, 0.000872665)",1.91907591149,-1.73388596714,-0.829059750438,"(0.003, 0.0, 0.0, 0.0, 0.003, 0.0, 0.0, 0.0, 0.003)"
2022/03/09/18:24:01.505631,12044,1646846641,502704764,imu_iphone,-0.0683020411003,0.0867975454095,-0.960185870847,0.256601073106,"(0.00872665, 0.0, 0.0, 0.0, 0.00872665, 0.0, 0.0, 0.0, 0.00872665)",0.681331276894,-0.21521115303,-0.537090420723,"(0.000872665, 0.0, 0.0, 0.0, 0.000872665, 0.0, 0.0, 0.0, 0.000872665)",2.04489615172,-1.46556893528,-0.857708183527,"(0.003, 0.0, 0.0, 0.0, 0.003, 0.0, 0.0, 0.0, 0.003)"
2022/03/09/18:24:01.533463,12045,1646846641,531919016,imu_iphone,-0.0578443541435,0.0931775800413,-0.960964486355,0.254006348811,"(0.00872665, 0.0, 0.0, 0.0, 0.00872665, 0.0, 0.0, 0.0, 0.00872665)",0.712749123573,-0.181276798248,-0.276592463255,"(0.000872665, 0.0, 0.0, 0.0, 0.000872665, 0.0, 0.0, 0.0, 0.000872665)",2.21016156256,-1.24610655963,-0.894770175219,"(0.003, 0.0, 0.0, 0.0, 0.003, 0.0, 0.0, 0.0, 0.003)"
2022/03/09/18:24:01.576024,12046,1646846641,572455749,imu_iphone,-0.047863015432,0.098365793038,-0.960713784325,0.255073179933,"(0.00872665, 0.0, 0.0, 0.0, 0.00872665, 0.0, 0.0, 0.0, 0.00872665)",0.736466169357,-0.139181345701,-0.0413211211562,"(0.000872665, 0.0, 0.0, 0.0, 0.000872665, 0.0, 0.0, 0.0, 0.000872665)",2.30261452049,-0.9782738965,-0.91332572937,"(0.003, 0.0, 0.0, 0.0, 0.003, 0.0, 0.0, 0.0, 0.003)"
2022/03/09/18:24:01.593621,12047,1646846641,592037873,imu_iphone,-0.038420781391,0.102595719173,-0.9595210384,0.259455851413,"(0.00872665, 0.0, 0.0, 0.0, 0.00872665, 0.0, 0.0, 0.0, 0.00872665)",0.758187830448,-0.0983155146241,0.183278381824,"(0.000872665, 0.0, 0.0, 0.0, 0.000872665, 0.0, 0.0, 0.0, 0.000872665)",2.41562862754,-0.726893763319,-0.952189248204,"(0.003, 0.0, 0.0, 0.0, 0.003, 0.0, 0.0, 0.0, 0.003)"
2022/03/09/18:24:01.622377,12048,1646846641,621924989,imu_iphone,-0.02961693082,0.106051169513,-0.957401393133,0.266942988823,"(0.00872665, 0.0, 0.0, 0.0, 0.00872665, 0.0, 0.0, 0.0, 0.00872665)",0.775039732456,-0.0493824630976,0.394609540701,"(0.000872665, 0.0, 0.0, 0.0, 0.000872665, 0.0, 0.0, 0.0, 0.000872665)",2.50900193721,-0.485140266716,-0.961168817282,"(0.003, 0.0, 0.0, 0.0, 0.003, 0.0, 0.0, 0.0, 0.003)"
2022/03/09/18:24:01.651930,12049,1646846641,651529480,imu_iphone,-0.0214716994601,0.108843679282,-0.954363598928,0.277276289366,"(0.00872665, 0.0, 0.0, 0.0, 0.00872665, 0.0, 0.0, 0.0, 0.00872665)",0.78791218996,0.00440035946667,0.592601716518,"(0.000872665, 0.0, 0.0, 0.0, 0.000872665, 0.0, 0.0, 0.0, 0.000872665)",2.59854268938,-0.241924893111,-0.969268965125,"(0.003, 0.0, 0.0, 0.0, 0.003, 0.0, 0.0, 0.0, 0.003)"
2022/03/09/18:24:01.690049,12050,1646846641,688659390,imu_iphone,-0.0139631220079,0.111127428131,-0.950398763912,0.290168770711,"(0.00872665, 0.0, 0.0, 0.0, 0.00872665, 0.0, 0.0, 0.0, 0.00872665)",0.798434555531,0.059092823416,0.770882070065,"(0.000872665, 0.0, 0.0, 0.0, 0.000872665, 0.0, 0.0, 0.0, 0.000872665)",2.66509949863,-0.0119590543583,-0.970761759281,"(0.003, 0.0, 0.0, 0.0, 0.003, 0.0, 0.0, 0.0, 0.003)"
2022/03/09/18:24:01.712453,12051,1646846641,711421146,imu_iphone,-0.00705696143271,0.113000535439,-0.945506668021,0.305283833529,"(0.00872665, 0.0, 0.0, 0.0, 0.00872665, 0.0, 0.0, 0.0, 0.00872665)",0.804557800293,0.113637492061,0.93260216713,"(0.000872665, 0.0, 0.0, 0.0, 0.000872665, 0.0, 0.0, 0.0, 0.000872665)",2.71407694638,0.219002090134,-0.954445104003,"(0.003, 0.0, 0.0, 0.0, 0.003, 0.0, 0.0, 0.0, 0.003)"
2022/03/09/18:24:01.744602,12052,1646846641,740730109,imu_iphone,-0.000715863038386,0.114567217095,-0.939643015502,0.322404782416,"(0.00872665, 0.0, 0.0, 0.0, 0.00872665, 0.0, 0.0, 0.0, 0.00872665)",0.807239413261,0.16959194839,1.08090865612,"(0.000872665, 0.0, 0.0, 0.0, 0.000872665, 0.0, 0.0, 0.0, 0.000872665)",2.68847666681,0.477243017256,-0.969454906583,"(0.003, 0.0, 0.0, 0.0, 0.003, 0.0, 0.0, 0.0, 0.003)"
2022/03/09/18:24:01.781455,12053,1646846641,780974483,imu_iphone,0.00509374553294,0.115973519219,-0.932800439399,0.341185487461,"(0.00872665, 0.0, 0.0, 0.0, 0.00872665, 0.0, 0.0, 0.0, 0.00872665)",0.807918727398,0.217981427908,1.20603978634,"(0.000872665, 0.0, 0.0, 0.0, 0.000872665, 0.0, 0.0, 0.0, 0.000872665)",2.60976232678,0.695468122065,-0.966884470582,"(0.003, 0.0, 0.0, 0.0, 0.003, 0.0, 0.0, 0.0, 0.003)"
2022/03/09/18:24:01.810595,12054,1646846641,807324229,imu_iphone,0.0104196093678,0.117341881613,-0.924978833728,0.361298314022,"(0.00872665, 0.0, 0.0, 0.0, 0.00872665, 0.0, 0.0, 0.0, 0.00872665)",0.803638875484,0.261356204748,1.31625103951,"(0.000872665, 0.0, 0.0, 0.0, 0.000872665, 0.0, 0.0, 0.0, 0.000872665)",2.54754590571,0.921350301951,-1.00889846921,"(0.003, 0.0, 0.0, 0.0, 0.003, 0.0, 0.0, 0.0, 0.003)"
2022/03/09/18:24:01.830949,12055,1646846641,830476922,imu_iphone,0.0152318327238,0.118791341666,-0.916122132985,0.382592271056,"(0.00872665, 0.0, 0.0, 0.0, 0.00872665, 0.0, 0.0, 0.0, 0.00872665)",0.795188128948,0.295624732971,1.41070914268,"(0.000872665, 0.0, 0.0, 0.0, 0.000872665, 0.0, 0.0, 0.0, 0.000872665)",2.45106114641,1.15036490835,-0.989444782734,"(0.003, 0.0, 0.0, 0.0, 0.003, 0.0, 0.0, 0.0, 0.003)"
2022/03/09/18:24:01.867492,12056,1646846641,860219324,imu_iphone,0.0194818456495,0.120418683703,-0.906257931015,0.404742338751,"(0.00872665, 0.0, 0.0, 0.0, 0.00872665, 0.0, 0.0, 0.0, 0.00872665)",0.782887160778,0.322613567114,1.49241900444,"(0.000872665, 0.0, 0.0, 0.0, 0.000872665, 0.0, 0.0, 0.0, 0.000872665)",2.33790071279,1.37076013416,-0.987402935028,"(0.003, 0.0, 0.0, 0.0, 0.003, 0.0, 0.0, 0.0, 0.003)"
2022/03/09/18:24:01.890905,12057,1646846641,890429054,imu_iphone,0.0231016157284,0.12230186016,-0.895380745135,0.427553378649,"(0.00872665, 0.0, 0.0, 0.0, 0.00872665, 0.0, 0.0, 0.0, 0.00872665)",0.761876404285,0.341433554888,1.5606855154,"(0.000872665, 0.0, 0.0, 0.0, 0.000872665, 0.0, 0.0, 0.0, 0.000872665)",2.2494685927,1.60586293459,-1.00074277282,"(0.003, 0.0, 0.0, 0.0, 0.003, 0.0, 0.0, 0.0, 0.003)"
2022/03/09/18:24:01.925679,12058,1646846641,923205542,imu_iphone,0.0260291710815,0.124439834719,-0.883554686745,0.450741971997,"(0.00872665, 0.0, 0.0, 0.0, 0.00872665, 0.0, 0.0, 0.0, 0.00872665)",0.734915554523,0.350391477346,1.62163114548,"(0.000872665, 0.0, 0.0, 0.0, 0.000872665, 0.0, 0.0, 0.0, 0.000872665)",2.13268858641,1.82145386875,-0.93772323668,"(0.003, 0.0, 0.0, 0.0, 0.003, 0.0, 0.0, 0.0, 0.003)"
2022/03/09/18:24:01.951545,12059,1646846641,949692358,imu_iphone,0.0281351213517,0.126823065145,-0.870790352713,0.474181913105,"(0.00872665, 0.0, 0.0, 0.0, 0.00872665, 0.0, 0.0, 0.0, 0.00872665)",0.699993848801,0.35890185833,1.65811645985,"(0.000872665, 0.0, 0.0, 0.0, 0.000872665, 0.0, 0.0, 0.0, 0.000872665)",2.02550546899,2.03914000645,-0.922221098542,"(0.003, 0.0, 0.0, 0.0, 0.003, 0.0, 0.0, 0.0, 0.003)"
2022/03/09/18:24:01.981543,12060,1646846641,979257894,imu_iphone,0.0294113540049,0.129391101094,-0.857234275623,0.497536241807,"(0.00872665, 0.0, 0.0, 0.0, 0.00872665, 0.0, 0.0, 0.0, 0.00872665)",0.65666270256,0.360251128674,1.67943120003,"(0.000872665, 0.0, 0.0, 0.0, 0.000872665, 0.0, 0.0, 0.0, 0.000872665)",1.93911241919,2.2114457573,-0.849452499747,"(0.003, 0.0, 0.0, 0.0, 0.003, 0.0, 0.0, 0.0, 0.003)"
2022/03/09/18:24:02.009382,12061,1646846642,8977917,imu_iphone,0.0298490375841,0.132000348776,-0.84304515376,0.520538002071,"(0.00872665, 0.0, 0.0, 0.0, 0.00872665, 0.0, 0.0, 0.0, 0.00872665)",0.609178006649,0.354896843433,1.68083178997,"(0.000872665, 0.0, 0.0, 0.0, 0.000872665, 0.0, 0.0, 0.0, 0.000872665)",1.85815274835,2.36903625906,-0.789696294665,"(0.003, 0.0, 0.0, 0.0, 0.003, 0.0, 0.0, 0.0, 0.003)"
2022/03/09/18:24:02.043377,12062,1646846642,40572105,imu_iphone,0.0295073417624,0.134522384369,-0.828439786271,0.542881723222,"(0.00872665, 0.0, 0.0, 0.0, 0.00872665, 0.0, 0.0, 0.0, 0.00872665)",0.556181371212,0.355379968882,1.6566092968,"(0.000872665, 0.0, 0.0, 0.0, 0.000872665, 0.0, 0.0, 0.0, 0.000872665)",1.80876394898,2.49594188869,-0.712972639203,"(0.003, 0.0, 0.0, 0.0, 0.003, 0.0, 0.0, 0.0, 0.003)"
2022/03/09/18:24:02.071030,12063,1646846642,70532775,imu_iphone,0.02854031386,0.136795109729,-0.813692525215,0.56424907873,"(0.00872665, 0.0, 0.0, 0.0, 0.00872665, 0.0, 0.0, 0.0, 0.00872665)",0.500608503819,0.349478572607,1.60297107697,"(0.000872665, 0.0, 0.0, 0.0, 0.000872665, 0.0, 0.0, 0.0, 0.000872665)",1.76045103729,2.58540545762,-0.687894515991,"(0.003, 0.0, 0.0, 0.0, 0.003, 0.0, 0.0, 0.0, 0.003)"
2022/03/09/18:24:02.098414,12064,1646846642,97989577,imu_iphone,0.0271981457765,0.138636348868,-0.799168269411,0.584269031188,"(0.00872665, 0.0, 0.0, 0.0, 0.00872665, 0.0, 0.0, 0.0, 0.00872665)",0.445673912764,0.355300456285,1.52260410786,"(0.000872665, 0.0, 0.0, 0.0, 0.000872665, 0.0, 0.0, 0.0, 0.000872665)",1.73310901836,2.64423897207,-0.625723995566,"(0.003, 0.0, 0.0, 0.0, 0.003, 0.0, 0.0, 0.0, 0.003)"
2022/03/09/18:24:02.131996,12065,1646846642,127979822,imu_iphone,0.0257755400611,0.139917388629,-0.785239756976,0.602625314733,"(0.00872665, 0.0, 0.0, 0.0, 0.00872665, 0.0, 0.0, 0.0, 0.00872665)",0.389383405447,0.359349191189,1.40660440922,"(0.000872665, 0.0, 0.0, 0.0, 0.000872665, 0.0, 0.0, 0.0, 0.000872665)",1.70042849153,2.6705350703,-0.58903388679,"(0.003, 0.0, 0.0, 0.0, 0.003, 0.0, 0.0, 0.0, 0.003)"
2022/03/09/18:24:02.164800,12066,1646846642,161217993,imu_iphone,0.0246710300269,0.140526067612,-0.772356594925,0.618958039672,"(0.00872665, 0.0, 0.0, 0.0, 0.00872665, 0.0, 0.0, 0.0, 0.00872665)",0.338757544756,0.373049706221,1.25217688084,"(0.000872665, 0.0, 0.0, 0.0, 0.000872665, 0.0, 0.0, 0.0, 0.000872665)",1.6653684403,2.67286635518,-0.588445656896,"(0.003, 0.0, 0.0, 0.0, 0.003, 0.0, 0.0, 0.0, 0.003)"
2022/03/09/18:24:02.189868,12067,1646846642,187897375,imu_iphone,0.0242347445731,0.140386214549,-0.760947808891,0.632979320408,"(0.00872665, 0.0, 0.0, 0.0, 0.00872665, 0.0, 0.0, 0.0, 0.00872665)",0.287859350443,0.394869625568,1.06668829918,"(0.000872665, 0.0, 0.0, 0.0, 0.000872665, 0.0, 0.0, 0.0, 0.000872665)",1.6418326664,2.64790517628,-0.544744736552,"(0.003, 0.0, 0.0, 0.0, 0.003, 0.0, 0.0, 0.0, 0.003)"
2022/03/09/18:24:02.219285,12068,1646846642,217656831,imu_iphone,0.0248549620364,0.139428193212,-0.751493823282,0.644359405432,"(0.00872665, 0.0, 0.0, 0.0, 0.00872665, 0.0, 0.0, 0.0, 0.00872665)",0.242693319917,0.41995331645,0.846631526947,"(0.000872665, 0.0, 0.0, 0.0, 0.000872665, 0.0, 0.0, 0.0, 0.000872665)",1.59784567103,2.63286906123,-0.56073979497,"(0.003, 0.0, 0.0, 0.0, 0.003, 0.0, 0.0, 0.0, 0.003)"
2022/03/09/18:24:02.248647,12069,1646846642,247725745,imu_iphone,0.0268530657204,0.13754790117,-0.744430893605,0.65282626509,"(0.00872665, 0.0, 0.0, 0.0, 0.00872665, 0.0, 0.0, 0.0, 0.00872665)",0.197992473841,0.453792124987,0.599163711071,"(0.000872665, 0.0, 0.0, 0.0, 0.000872665, 0.0, 0.0, 0.0, 0.000872665)",1.52059152693,2.62580328584,-0.551052128077,"(0.003, 0.0, 0.0, 0.0, 0.003, 0.0, 0.0, 0.0, 0.003)"
2022/03/09/18:24:02.282604,12070,1646846642,280398417,imu_iphone,0.0304162970754,0.134661796447,-0.74008123609,0.658195118059,"(0.00872665, 0.0, 0.0, 0.0, 0.00872665, 0.0, 0.0, 0.0, 0.00872665)",0.150877654552,0.488517433405,0.332519620657,"(0.000872665, 0.0, 0.0, 0.0, 0.000872665, 0.0, 0.0, 0.0, 0.000872665)",1.42588592917,2.6310637334,-0.551167902946,"(0.003, 0.0, 0.0, 0.0, 0.003, 0.0, 0.0, 0.0, 0.003)"
2022/03/09/18:24:02.307703,12071,1646846642,307219417,imu_iphone,0.0355380149013,0.130661796051,-0.738579336186,0.660427973899,"(0.00872665, 0.0, 0.0, 0.0, 0.00872665, 0.0, 0.0, 0.0, 0.00872665)",0.105404242873,0.52910399437,0.0721991881728,"(0.000872665, 0.0, 0.0, 0.0, 0.000872665, 0.0, 0.0, 0.0, 0.000872665)",1.27694667533,2.6291157335,-0.558228415847,"(0.003, 0.0, 0.0, 0.0, 0.003, 0.0, 0.0, 0.0, 0.003)"
2022/03/09/18:24:02.340176,12072,1646846642,337513064,imu_iphone,0.0420113726511,0.12537131421,-0.739791258708,0.659716584361,"(0.00872665, 0.0, 0.0, 0.0, 0.00872665, 0.0, 0.0, 0.0, 0.00872665)",0.0545984208584,0.568638682365,-0.156261026859,"(0.000872665, 0.0, 0.0, 0.0, 0.000872665, 0.0, 0.0, 0.0, 0.000872665)",1.14077774048,2.64104405344,-0.566200509667,"(0.003, 0.0, 0.0, 0.0, 0.003, 0.0, 0.0, 0.0, 0.003)"
2022/03/09/18:24:02.370757,12073,1646846642,370347072,imu_iphone,0.0494808915833,0.118648339926,-0.743436357365,0.656335733713,"(0.00872665, 0.0, 0.0, 0.0, 0.00872665, 0.0, 0.0, 0.0, 0.00872665)",-0.00152174942195,0.600304961205,-0.358603358269,"(0.000872665, 0.0, 0.0, 0.0, 0.000872665, 0.0, 0.0, 0.0, 0.000872665)",0.94974818185,2.66529596508,-0.603554862142,"(0.003, 0.0, 0.0, 0.0, 0.003, 0.0, 0.0, 0.0, 0.003)"
2022/03/09/18:24:02.403162,12074,1646846642,401290288,imu_iphone,0.0574197031293,0.110413072982,-0.749037341351,0.650734194791,"(0.00872665, 0.0, 0.0, 0.0, 0.00872665, 0.0, 0.0, 0.0, 0.00872665)",-0.0650983899832,0.630560576916,-0.511535704136,"(0.000872665, 0.0, 0.0, 0.0, 0.000872665, 0.0, 0.0, 0.0, 0.000872665)",0.735661443919,2.67221409827,-0.605049410462,"(0.003, 0.0, 0.0, 0.0, 0.003, 0.0, 0.0, 0.0, 0.003)"
2022/03/09/18:24:02.426576,12075,1646846642,426121262,imu_iphone,0.0653393690787,0.100654754045,-0.756101831821,0.643357915358,"(0.00872665, 0.0, 0.0, 0.0, 0.00872665, 0.0, 0.0, 0.0, 0.00872665)",-0.129498675466,0.655735492706,-0.628739416599,"(0.000872665, 0.0, 0.0, 0.0, 0.000872665, 0.0, 0.0, 0.0, 0.000872665)",0.490894950181,2.66928084254,-0.646732456684,"(0.003, 0.0, 0.0, 0.0, 0.003, 0.0, 0.0, 0.0, 0.003)"
2022/03/09/18:24:02.457079,12076,1646846642,456047207,imu_iphone,0.0726754425602,0.0894450503605,-0.764087555916,0.634734645273,"(0.00872665, 0.0, 0.0, 0.0, 0.00872665, 0.0, 0.0, 0.0, 0.00872665)",-0.200799822807,0.667524755001,-0.706244766712,"(0.000872665, 0.0, 0.0, 0.0, 0.000872665, 0.0, 0.0, 0.0, 0.000872665)",0.202627108879,2.66040944695,-0.669544783831,"(0.003, 0.0, 0.0, 0.0, 0.003, 0.0, 0.0, 0.0, 0.003)"
2022/03/09/18:24:02.490782,12077,1646846642,488793387,imu_iphone,0.0789585712112,0.0769775534677,-0.772525855921,0.625334952028,"(0.00872665, 0.0, 0.0, 0.0, 0.00872665, 0.0, 0.0, 0.0, 0.00872665)",-0.281654775143,0.670167446136,-0.748847544193,"(0.000872665, 0.0, 0.0, 0.0, 0.000872665, 0.0, 0.0, 0.0, 0.000872665)",-0.116948990822,2.60420191705,-0.704859627485,"(0.003, 0.0, 0.0, 0.0, 0.003, 0.0, 0.0, 0.0, 0.003)"
2022/03/09/18:24:02.521353,12078,1646846642,520982040,imu_iphone,0.0837890116528,0.0635358837107,-0.780983049752,0.615636312288,"(0.00872665, 0.0, 0.0, 0.0, 0.00872665, 0.0, 0.0, 0.0, 0.00872665)",-0.359618455172,0.656416535378,-0.759477615356,"(0.000872665, 0.0, 0.0, 0.0, 0.000872665, 0.0, 0.0, 0.0, 0.000872665)",-0.462136370167,2.51116920769,-0.738012755513,"(0.003, 0.0, 0.0, 0.0, 0.003, 0.0, 0.0, 0.0, 0.003)"
2022/03/09/18:24:02.546667,12079,1646846642,545152141,imu_iphone,0.0869013560149,0.0494505661262,-0.789136089099,0.606025600709,"(0.00872665, 0.0, 0.0, 0.0, 0.00872665, 0.0, 0.0, 0.0, 0.00872665)",-0.436483293772,0.628132581711,-0.757172465324,"(0.000872665, 0.0, 0.0, 0.0, 0.000872665, 0.0, 0.0, 0.0, 0.000872665)",-0.793049234301,2.38671619266,-0.761818524599,"(0.003, 0.0, 0.0, 0.0, 0.003, 0.0, 0.0, 0.0, 0.003)"
2022/03/09/18:24:02.576439,12080,1646846642,575040259,imu_iphone,0.0881475047663,0.035064814532,-0.796771956015,0.596787170014,"(0.00872665, 0.0, 0.0, 0.0, 0.00872665, 0.0, 0.0, 0.0, 0.00872665)",-0.513043224812,0.586664795876,-0.74389308691,"(0.000872665, 0.0, 0.0, 0.0, 0.000872665, 0.0, 0.0, 0.0, 0.000872665)",-1.11804193877,2.194209335,-0.783109406233,"(0.003, 0.0, 0.0, 0.0, 0.003, 0.0, 0.0, 0.0, 0.003)"
2022/03/09/18:24:02.608144,12081,1646846642,606219081,imu_iphone,0.0874952658521,0.0207221854177,-0.803770832357,0.588105108409,"(0.00872665, 0.0, 0.0, 0.0, 0.00872665, 0.0, 0.0, 0.0, 0.00872665)",-0.577539920807,0.535131573677,-0.724897027016,"(0.000872665, 0.0, 0.0, 0.0, 0.000872665, 0.0, 0.0, 0.0, 0.000872665)",-1.43033288285,1.96752915636,-0.805279709101,"(0.003, 0.0, 0.0, 0.0, 0.003, 0.0, 0.0, 0.0, 0.003)"
2022/03/09/18:24:02.635221,12082,1646846642,634816358,imu_iphone,0.0849739629489,0.00668473728041,-0.810372784387,0.579681542084,"(0.00872665, 0.0, 0.0, 0.0, 0.00872665, 0.0, 0.0, 0.0, 0.00872665)",-0.633469045162,0.468814820051,-0.745308876038,"(0.000872665, 0.0, 0.0, 0.0, 0.000872665, 0.0, 0.0, 0.0, 0.000872665)",-1.82564807653,1.70220019788,-0.816292939782,"(0.003, 0.0, 0.0, 0.0, 0.003, 0.0, 0.0, 0.0, 0.003)"
2022/03/09/18:24:02.665148,12083,1646846642,664787848,imu_iphone,0.0807133341466,-0.00680742650192,-0.816556734277,0.57155412372,"(0.00872665, 0.0, 0.0, 0.0, 0.00872665, 0.0, 0.0, 0.0, 0.00872665)",-0.677011609077,0.398768693209,-0.747390031815,"(0.000872665, 0.0, 0.0, 0.0, 0.000872665, 0.0, 0.0, 0.0, 0.000872665)",-1.95631331965,1.34534009501,-0.851573284864,"(0.003, 0.0, 0.0, 0.0, 0.003, 0.0, 0.0, 0.0, 0.003)"
2022/03/09/18:24:02.694373,12084,1646846642,694010609,imu_iphone,0.0748833376944,-0.0195252198978,-0.822344282189,0.563703053988,"(0.00872665, 0.0, 0.0, 0.0, 0.00872665, 0.0, 0.0, 0.0, 0.00872665)",-0.709838151932,0.330133646727,-0.757237911224,"(0.000872665, 0.0, 0.0, 0.0, 0.000872665, 0.0, 0.0, 0.0, 0.000872665)",-2.07878208205,1.04643803224,-0.837202582955,"(0.003, 0.0, 0.0, 0.0, 0.003, 0.0, 0.0, 0.0, 0.003)"
2022/03/09/18:24:02.727970,12085,1646846642,727548320,imu_iphone,0.067631339182,-0.0313819251161,-0.827950460337,0.55582300417,"(0.00872665, 0.0, 0.0, 0.0, 0.00872665, 0.0, 0.0, 0.0, 0.00872665)",-0.729380786419,0.255167275667,-0.799915671349,"(0.000872665, 0.0, 0.0, 0.0, 0.000872665, 0.0, 0.0, 0.0, 0.000872665)",-2.18182434753,0.693232877702,-0.875619959235,"(0.003, 0.0, 0.0, 0.0, 0.003, 0.0, 0.0, 0.0, 0.003)"
2022/03/09/18:24:02.754249,12086,1646846642,753871055,imu_iphone,0.0591042580886,-0.042266621843,-0.833567862639,0.547617419125,"(0.00872665, 0.0, 0.0, 0.0, 0.00872665, 0.0, 0.0, 0.0, 0.00872665)",-0.736111700535,0.187219113111,-0.841207742691,"(0.000872665, 0.0, 0.0, 0.0, 0.000872665, 0.0, 0.0, 0.0, 0.000872665)",-2.22756185308,0.367603996173,-0.854727272987,"(0.003, 0.0, 0.0, 0.0, 0.003, 0.0, 0.0, 0.0, 0.003)"
2022/03/09/18:24:02.784380,12087,1646846642,783760944,imu_iphone,0.0494583892369,-0.0521122412312,-0.839291449299,0.538913764141,"(0.00872665, 0.0, 0.0, 0.0, 0.00872665, 0.0, 0.0, 0.0, 0.00872665)",-0.741477668285,0.121369533241,-0.8938549757,"(0.000872665, 0.0, 0.0, 0.0, 0.000872665, 0.0, 0.0, 0.0, 0.000872665)",-2.2515157029,0.0311005360633,-0.848820415735,"(0.003, 0.0, 0.0, 0.0, 0.003, 0.0, 0.0, 0.0, 0.003)"
2022/03/09/18:24:02.814887,12088,1646846642,813138300,imu_iphone,0.0387775270546,-0.0607536767155,-0.845223349225,0.529530720625,"(0.00872665, 0.0, 0.0, 0.0, 0.00872665, 0.0, 0.0, 0.0, 0.00872665)",-0.735202610493,0.0556714423001,-0.952315092087,"(0.000872665, 0.0, 0.0, 0.0, 0.000872665, 0.0, 0.0, 0.0, 0.000872665)",-2.25671168491,-0.287662983388,-0.809797852635,"(0.003, 0.0, 0.0, 0.0, 0.003, 0.0, 0.0, 0.0, 0.003)"
2022/03/09/18:24:02.849103,12089,1646846642,847221920,imu_iphone,0.0271885703823,-0.068090419493,-0.851436804388,0.519307081165,"(0.00872665, 0.0, 0.0, 0.0, 0.00872665, 0.0, 0.0, 0.0, 0.00872665)",-0.718711137772,-0.0053921462968,-1.01060771942,"(0.000872665, 0.0, 0.0, 0.0, 0.000872665, 0.0, 0.0, 0.0, 0.000872665)",-2.23792121887,-0.595829667002,-0.799574580789,"(0.003, 0.0, 0.0, 0.0, 0.003, 0.0, 0.0, 0.0, 0.003)"
2022/03/09/18:24:02.873799,12090,1646846642,873238929,imu_iphone,0.0147985486013,-0.0739362692755,-0.85796861807,0.508138053537,"(0.00872665, 0.0, 0.0, 0.0, 0.00872665, 0.0, 0.0, 0.0, 0.00872665)",-0.697970747948,-0.0696114897728,-1.07111680508,"(0.000872665, 0.0, 0.0, 0.0, 0.000872665, 0.0, 0.0, 0.0, 0.000872665)",-2.21302523643,-0.868670251071,-0.770181212425,"(0.003, 0.0, 0.0, 0.0, 0.003, 0.0, 0.0, 0.0, 0.003)"
2022/03/09/18:24:02.904679,12091,1646846642,903389547,imu_iphone,0.00173693565892,-0.0781227118232,-0.864824714983,0.495955680788,"(0.00872665, 0.0, 0.0, 0.0, 0.00872665, 0.0, 0.0, 0.0, 0.00872665)",-0.67286247015,-0.135360658169,-1.12353718281,"(0.000872665, 0.0, 0.0, 0.0, 0.000872665, 0.0, 0.0, 0.0, 0.000872665)",-2.15094680965,-1.14879427314,-0.761368873715,"(0.003, 0.0, 0.0, 0.0, 0.003, 0.0, 0.0, 0.0, 0.003)"
2022/03/09/18:24:02.932752,12092,1646846642,932395954,imu_iphone,-0.0118649263158,-0.0804891715283,-0.871984099503,0.482726057929,"(0.00872665, 0.0, 0.0, 0.0, 0.00872665, 0.0, 0.0, 0.0, 0.00872665)",-0.641165316105,-0.200712844729,-1.17480003834,"(0.000872665, 0.0, 0.0, 0.0, 0.000872665, 0.0, 0.0, 0.0, 0.000872665)",-2.09289024398,-1.4272492075,-0.724583455324,"(0.003, 0.0, 0.0, 0.0, 0.003, 0.0, 0.0, 0.0, 0.003)"
2022/03/09/18:24:02.972333,12093,1646846642,971001311,imu_iphone,-0.0257409167857,-0.080897960632,-0.879418175768,0.468419253766,"(0.00872665, 0.0, 0.0, 0.0, 0.00872665, 0.0, 0.0, 0.0, 0.00872665)",-0.601878762245,-0.265293776989,-1.2131704092,"(0.000872665, 0.0, 0.0, 0.0, 0.000872665, 0.0, 0.0, 0.0, 0.000872665)",-1.95680185452,-1.69656465143,-0.688814867735,"(0.003, 0.0, 0.0, 0.0, 0.003, 0.0, 0.0, 0.0, 0.003)"
2022/03/09/18:24:02.999931,12094,1646846642,992400594,imu_iphone,-0.0396324720951,-0.079243627076,-0.887027152061,0.453136343974,"(0.00872665, 0.0, 0.0, 0.0, 0.00872665, 0.0, 0.0, 0.0, 0.00872665)",-0.557641386986,-0.327535241842,-1.23424363136,"(0.000872665, 0.0, 0.0, 0.0, 0.000872665, 0.0, 0.0, 0.0, 0.000872665)",-1.80619058937,-1.96113317952,-0.67883133173,"(0.003, 0.0, 0.0, 0.0, 0.003, 0.0, 0.0, 0.0, 0.003)"
2022/03/09/18:24:03.024112,12095,1646846643,22322919,imu_iphone,-0.0532382341089,-0.0754940305544,-0.894739641744,0.436929416807,"(0.00872665, 0.0, 0.0, 0.0, 0.00872665, 0.0, 0.0, 0.0, 0.00872665)",-0.503582298756,-0.384693145752,-1.25293326378,"(0.000872665, 0.0, 0.0, 0.0, 0.000872665, 0.0, 0.0, 0.0, 0.000872665)",-1.59683132529,-2.19758347079,-0.63880012393,"(0.003, 0.0, 0.0, 0.0, 0.003, 0.0, 0.0, 0.0, 0.003)"
2022/03/09/18:24:03.055740,12096,1646846643,54912058,imu_iphone,-0.0661928427779,-0.0697017302871,-0.902444148631,0.419946109592,"(0.00872665, 0.0, 0.0, 0.0, 0.00872665, 0.0, 0.0, 0.0, 0.00872665)",-0.439862698317,-0.433927744627,-1.25147783756,"(0.000872665, 0.0, 0.0, 0.0, 0.000872665, 0.0, 0.0, 0.0, 0.000872665)",-1.32687400326,-2.43711875305,-0.636189342141,"(0.003, 0.0, 0.0, 0.0, 0.003, 0.0, 0.0, 0.0, 0.003)"
2022/03/09/18:24:03.090205,12097,1646846643,89771192,imu_iphone,-0.0781201482681,-0.0620609614383,-0.910040378878,0.402333429275,"(0.00872665, 0.0, 0.0, 0.0, 0.00872665, 0.0, 0.0, 0.0, 0.00872665)",-0.369332045317,-0.469746440649,-1.24361741543,"(0.000872665, 0.0, 0.0, 0.0, 0.000872665, 0.0, 0.0, 0.0, 0.000872665)",-1.02312964194,-2.64529965699,-0.59108099699,"(0.003, 0.0, 0.0, 0.0, 0.003, 0.0, 0.0, 0.0, 0.003)"
2022/03/09/18:24:03.112005,12098,1646846643,111546505,imu_iphone,-0.0886821593796,-0.0528223174337,-0.917393477835,0.384362438611,"(0.00872665, 0.0, 0.0, 0.0, 0.00872665, 0.0, 0.0, 0.0, 0.00872665)",-0.292935937643,-0.493009865284,-1.22238183022,"(0.000872665, 0.0, 0.0, 0.0, 0.000872665, 0.0, 0.0, 0.0, 0.000872665)",-0.706960532069,-2.80826565027,-0.577878568769,"(0.003, 0.0, 0.0, 0.0, 0.003, 0.0, 0.0, 0.0, 0.003)"
2022/03/09/18:24:03.141497,12099,1646846643,141062652,imu_iphone,-0.0975952193706,-0.0422871050127,-0.924377138211,0.366352126045,"(0.00872665, 0.0, 0.0, 0.0, 0.00872665, 0.0, 0.0, 0.0, 0.00872665)",-0.215085566044,-0.506266355515,-1.18643581867,"(0.000872665, 0.0, 0.0, 0.0, 0.000872665, 0.0, 0.0, 0.0, 0.000872665)",-0.395197920464,-2.94395906031,-0.543043781519,"(0.003, 0.0, 0.0, 0.0, 0.003, 0.0, 0.0, 0.0, 0.003)"
2022/03/09/18:24:03.171998,12100,1646846643,171456196,imu_iphone,-0.104668237193,-0.0308315327479,-0.930887764813,0.348628664961,"(0.00872665, 0.0, 0.0, 0.0, 0.00872665, 0.0, 0.0, 0.0, 0.00872665)",-0.133971467614,-0.510504901409,-1.1373950243,"(0.000872665, 0.0, 0.0, 0.0, 0.000872665, 0.0, 0.0, 0.0, 0.000872665)",-0.0987943363935,-3.03894883275,-0.5198010993,"(0.003, 0.0, 0.0, 0.0, 0.003, 0.0, 0.0, 0.0, 0.003)"
2022/03/09/18:24:03.211297,12101,1646846643,210775201,imu_iphone,-0.109774449125,-0.018836184475,-0.936849457684,0.331523546842,"(0.00872665, 0.0, 0.0, 0.0, 0.00872665, 0.0, 0.0, 0.0, 0.00872665)",-0.0510778278112,-0.500148653984,-1.07778131962,"(0.000872665, 0.0, 0.0, 0.0, 0.000872665, 0.0, 0.0, 0.0, 0.000872665)",0.212272310369,-3.08347245634,-0.488131409883,"(0.003, 0.0, 0.0, 0.0, 0.003, 0.0, 0.0, 0.0, 0.003)"
2022/03/09/18:24:03.231623,12102,1646846643,231066938,imu_iphone,-0.112887785378,-0.00668692502526,-0.942185280632,0.31543387565,"(0.00872665, 0.0, 0.0, 0.0, 0.00872665, 0.0, 0.0, 0.0, 0.00872665)",0.0311275869608,-0.487369537354,-1.00307130814,"(0.000872665, 0.0, 0.0, 0.0, 0.000872665, 0.0, 0.0, 0.0, 0.000872665)",0.489406614527,-3.09248710871,-0.489062871337,"(0.003, 0.0, 0.0, 0.0, 0.003, 0.0, 0.0, 0.0, 0.003)"
2022/03/09/18:24:03.262824,12103,1646846643,260123010,imu_iphone,-0.114036544394,0.00524847883042,-0.946863191622,0.300696219405,"(0.00872665, 0.0, 0.0, 0.0, 0.00872665, 0.0, 0.0, 0.0, 0.00872665)",0.116352386773,-0.460564464331,-0.915328085423,"(0.000872665, 0.0, 0.0, 0.0, 0.000872665, 0.0, 0.0, 0.0, 0.000872665)",0.746629066318,-3.06456431508,-0.485307789445,"(0.003, 0.0, 0.0, 0.0, 0.003, 0.0, 0.0, 0.0, 0.003)"
2022/03/09/18:24:03.290358,12104,1646846643,289990023,imu_iphone,-0.113347977648,0.0166551416321,-0.950855942713,0.28765920536,"(0.00872665, 0.0, 0.0, 0.0, 0.00872665, 0.0, 0.0, 0.0, 0.00872665)",0.197151482105,-0.430663496256,-0.810710370541,"(0.000872665, 0.0, 0.0, 0.0, 0.000872665, 0.0, 0.0, 0.0, 0.000872665)",0.967949906364,-3.00405323446,-0.458846799731,"(0.003, 0.0, 0.0, 0.0, 0.003, 0.0, 0.0, 0.0, 0.003)"
2022/03/09/18:24:03.322638,12105,1646846643,321259926,imu_iphone,-0.11102864024,0.0272519203185,-0.954150568823,0.276634534903,"(0.00872665, 0.0, 0.0, 0.0, 0.00872665, 0.0, 0.0, 0.0, 0.00872665)",0.274660408497,-0.396877527237,-0.689909815788,"(0.000872665, 0.0, 0.0, 0.0, 0.000872665, 0.0, 0.0, 0.0, 0.000872665)",1.15739048414,-2.9127015996,-0.484709619284,"(0.003, 0.0, 0.0, 0.0, 0.003, 0.0, 0.0, 0.0, 0.003)"
2022/03/09/18:24:03.350310,12106,1646846643,349894285,imu_iphone,-0.107292120099,0.0368966828892,-0.95675323408,0.267862436401,"(0.00872665, 0.0, 0.0, 0.0, 0.00872665, 0.0, 0.0, 0.0, 0.00872665)",0.347730219364,-0.364399313927,-0.557958781719,"(0.000872665, 0.0, 0.0, 0.0, 0.000872665, 0.0, 0.0, 0.0, 0.000872665)",1.32623022482,-2.7841213274,-0.516319082379,"(0.003, 0.0, 0.0, 0.0, 0.003, 0.0, 0.0, 0.0, 0.003)"
2022/03/09/18:24:03.381212,12107,1646846643,379625718,imu_iphone,-0.102381589397,0.045456174318,-0.958669024518,0.261544351496,"(0.00872665, 0.0, 0.0, 0.0, 0.00872665, 0.0, 0.0, 0.0, 0.00872665)",0.415763527155,-0.327647715807,-0.413548588753,"(0.000872665, 0.0, 0.0, 0.0, 0.000872665, 0.0, 0.0, 0.0, 0.000872665)",1.46852674931,-2.63563596368,-0.539736596346,"(0.003, 0.0, 0.0, 0.0, 0.003, 0.0, 0.0, 0.0, 0.003)"
2022/03/09/18:24:03.410726,12108,1646846643,410042079,imu_iphone,-0.0965576655264,0.0529254223495,-0.959890763663,0.257847316704,"(0.00872665, 0.0, 0.0, 0.0, 0.00872665, 0.0, 0.0, 0.0, 0.00872665)",0.478739976883,-0.293564349413,-0.256576985121,"(0.000872665, 0.0, 0.0, 0.0, 0.000872665, 0.0, 0.0, 0.0, 0.000872665)",1.58881362319,-2.45754380822,-0.583513530493,"(0.003, 0.0, 0.0, 0.0, 0.003, 0.0, 0.0, 0.0, 0.003)"
2022/03/09/18:24:03.442152,12109,1646846643,441357969,imu_iphone,-0.0900777953788,0.0592995956262,-0.960412780835,0.256859570871,"(0.00872665, 0.0, 0.0, 0.0, 0.00872665, 0.0, 0.0, 0.0, 0.00872665)",0.534842789173,-0.258203029633,-0.092908911407,"(0.000872665, 0.0, 0.0, 0.0, 0.000872665, 0.0, 0.0, 0.0, 0.000872665)",1.68242359892,-2.26761147961,-0.600465193391,"(0.003, 0.0, 0.0, 0.0, 0.003, 0.0, 0.0, 0.0, 0.003)"
2022/03/09/18:24:03.470034,12110,1646846643,469413092,imu_iphone,-0.0831405127644,0.0646975960229,-0.960241474013,0.258530825613,"(0.00872665, 0.0, 0.0, 0.0, 0.00872665, 0.0, 0.0, 0.0, 0.00872665)",0.581864774227,-0.226275473833,0.0714963302016,"(0.000872665, 0.0, 0.0, 0.0, 0.000872665, 0.0, 0.0, 0.0, 0.000872665)",1.75542959467,-2.04800891697,-0.652740470767,"(0.003, 0.0, 0.0, 0.0, 0.003, 0.0, 0.0, 0.0, 0.003)"
2022/03/09/18:24:03.499954,12111,1646846643,498388901,imu_iphone,-0.0759679935367,0.0692548198902,-0.959353204681,0.262819448573,"(0.00872665, 0.0, 0.0, 0.0, 0.00872665, 0.0, 0.0, 0.0, 0.00872665)",0.625935792923,-0.190617516637,0.23279415071,"(0.000872665, 0.0, 0.0, 0.0, 0.000872665, 0.0, 0.0, 0.0, 0.000872665)",1.8261075215,-1.81809595898,-0.691125687361,"(0.003, 0.0, 0.0, 0.0, 0.003, 0.0, 0.0, 0.0, 0.003)"
2022/03/09/18:24:03.529296,12112,1646846643,528916269,imu_iphone,-0.0687139638681,0.0731385965742,-0.957740046066,0.269561015397,"(0.00872665, 0.0, 0.0, 0.0, 0.00872665, 0.0, 0.0, 0.0, 0.00872665)",0.661142766476,-0.165453702211,0.389020055532,"(0.000872665, 0.0, 0.0, 0.0, 0.000872665, 0.0, 0.0, 0.0, 0.000872665)",1.86753051281,-1.57363951385,-0.720153604746,"(0.003, 0.0, 0.0, 0.0, 0.003, 0.0, 0.0, 0.0, 0.003)"
2022/03/09/18:24:03.562484,12113,1646846643,560616864,imu_iphone,-0.0614571285657,0.0765440387119,-0.955446660594,0.278362551801,"(0.00872665, 0.0, 0.0, 0.0, 0.00872665, 0.0, 0.0, 0.0, 0.00872665)",0.691490709782,-0.139655306935,0.522420167923,"(0.000872665, 0.0, 0.0, 0.0, 0.000872665, 0.0, 0.0, 0.0, 0.000872665)",1.85884681284,-1.30778182089,-0.756078312993,"(0.003, 0.0, 0.0, 0.0, 0.003, 0.0, 0.0, 0.0, 0.003)"
2022/03/09/18:24:03.588655,12114,1646846643,588334083,imu_iphone,-0.0543268401551,0.0795702223688,-0.95241709075,0.289169257352,"(0.00872665, 0.0, 0.0, 0.0, 0.00872665, 0.0, 0.0, 0.0, 0.00872665)",0.713360071182,-0.112651988864,0.646164596081,"(0.000872665, 0.0, 0.0, 0.0, 0.000872665, 0.0, 0.0, 0.0, 0.000872665)",1.93701092988,-1.06354442708,-0.795104384422,"(0.003, 0.0, 0.0, 0.0, 0.003, 0.0, 0.0, 0.0, 0.003)"
2022/03/09/18:24:03.618415,12115,1646846643,617737164,imu_iphone,-0.047400391935,0.0823793535884,-0.948652011044,0.30170549695,"(0.00872665, 0.0, 0.0, 0.0, 0.00872665, 0.0, 0.0, 0.0, 0.00872665)",0.72954672575,-0.0870472639799,0.764073491096,"(0.000872665, 0.0, 0.0, 0.0, 0.000872665, 0.0, 0.0, 0.0, 0.000872665)",1.98481922686,-0.837830281556,-0.796492513418,"(0.003, 0.0, 0.0, 0.0, 0.003, 0.0, 0.0, 0.0, 0.003)"
2022/03/09/18:24:03.649601,12116,1646846643,647349703,imu_iphone,-0.0407442272643,0.0850464541871,-0.944154454198,0.315720406677,"(0.00872665, 0.0, 0.0, 0.0, 0.00872665, 0.0, 0.0, 0.0, 0.00872665)",0.739351868629,-0.0624954290688,0.864891588688,"(0.000872665, 0.0, 0.0, 0.0, 0.000872665, 0.0, 0.0, 0.0, 0.000872665)",2.00818893984,-0.608004812524,-0.831015059352,"(0.003, 0.0, 0.0, 0.0, 0.003, 0.0, 0.0, 0.0, 0.003)"
2022/03/09/18:24:03.681280,12117,1646846643,680104395,imu_iphone,-0.0343830842848,0.0876244292532,-0.93893336933,0.330974154385,"(0.00872665, 0.0, 0.0, 0.0, 0.00872665, 0.0, 0.0, 0.0, 0.00872665)",0.744961500168,-0.0345566272736,0.958640933037,"(0.000872665, 0.0, 0.0, 0.0, 0.000872665, 0.0, 0.0, 0.0, 0.000872665)",2.03761344463,-0.364519882277,-0.840251905918,"(0.003, 0.0, 0.0, 0.0, 0.003, 0.0, 0.0, 0.0, 0.003)"
2022/03/09/18:24:03.709398,12118,1646846643,708849506,imu_iphone,-0.0283864642258,0.090161329844,-0.932968630109,0.347325032904,"(0.00872665, 0.0, 0.0, 0.0, 0.00872665, 0.0, 0.0, 0.0, 0.00872665)",0.745129823685,-0.00673393625766,1.03254473209,"(0.000872665, 0.0, 0.0, 0.0, 0.000872665, 0.0, 0.0, 0.0, 0.000872665)",2.08018746033,-0.137821147861,-0.830039743781,"(0.003, 0.0, 0.0, 0.0, 0.003, 0.0, 0.0, 0.0, 0.003)"
2022/03/09/18:24:03.737370,12119,1646846643,736895302,imu_iphone,-0.0227410223174,0.0926877682557,-0.926301277133,0.364496594635,"(0.00872665, 0.0, 0.0, 0.0, 0.00872665, 0.0, 0.0, 0.0, 0.00872665)",0.742445588112,0.0233912840486,1.10715937614,"(0.000872665, 0.0, 0.0, 0.0, 0.000872665, 0.0, 0.0, 0.0, 0.000872665)",2.09637255326,0.0693272382952,-0.830746087432,"(0.003, 0.0, 0.0, 0.0, 0.003, 0.0, 0.0, 0.0, 0.003)"
2022/03/09/18:24:03.768878,12120,1646846643,768539280,imu_iphone,-0.0174811057297,0.095218310178,-0.918931807108,0.382350909812,"(0.00872665, 0.0, 0.0, 0.0, 0.00872665, 0.0, 0.0, 0.0, 0.00872665)",0.737724304199,0.0477855950594,1.16257834435,"(0.000872665, 0.0, 0.0, 0.0, 0.000872665, 0.0, 0.0, 0.0, 0.000872665)",2.10249151826,0.285961407088,-0.835625588894,"(0.003, 0.0, 0.0, 0.0, 0.003, 0.0, 0.0, 0.0, 0.003)"
2022/03/09/18:24:03.801651,12121,1646846643,800014840,imu_iphone,-0.0125821236604,0.0977461608032,-0.9108896405,0.400708673529,"(0.00872665, 0.0, 0.0, 0.0, 0.00872665, 0.0, 0.0, 0.0, 0.00872665)",0.726433038712,0.0808921828866,1.20798242092,"(0.000872665, 0.0, 0.0, 0.0, 0.000872665, 0.0, 0.0, 0.0, 0.000872665)",2.11988479212,0.461876644157,-0.814613619447,"(0.003, 0.0, 0.0, 0.0, 0.003, 0.0, 0.0, 0.0, 0.003)"
2022/03/09/18:24:03.827166,12122,1646846643,826632595,imu_iphone,-0.00799402821927,0.100243320201,-0.90225657853,0.419309478508,"(0.00872665, 0.0, 0.0, 0.0, 0.00872665, 0.0, 0.0, 0.0, 0.00872665)",0.716609477997,0.11211130023,1.23571610451,"(0.000872665, 0.0, 0.0, 0.0, 0.000872665, 0.0, 0.0, 0.0, 0.000872665)",2.11737385154,0.647847082168,-0.81273198545,"(0.003, 0.0, 0.0, 0.0, 0.003, 0.0, 0.0, 0.0, 0.003)"
2022/03/09/18:24:03.860152,12123,1646846643,857522835,imu_iphone,-0.00366854126679,0.102728534948,-0.89307930811,0.437998560886,"(0.00872665, 0.0, 0.0, 0.0, 0.00872665, 0.0, 0.0, 0.0, 0.00872665)",0.703441560268,0.146001636982,1.24967813492,"(0.000872665, 0.0, 0.0, 0.0, 0.000872665, 0.0, 0.0, 0.0, 0.000872665)",2.0888718912,0.809986863881,-0.785863444805,"(0.003, 0.0, 0.0, 0.0, 0.003, 0.0, 0.0, 0.0, 0.003)"
2022/03/09/18:24:03.889666,12124,1646846643,888438914,imu_iphone,0.000420426287526,0.105198071168,-0.883462900547,0.45653750385,"(0.00872665, 0.0, 0.0, 0.0, 0.00872665, 0.0, 0.0, 0.0, 0.00872665)",0.690582692623,0.170325055718,1.2584028244,"(0.000872665, 0.0, 0.0, 0.0, 0.000872665, 0.0, 0.0, 0.0, 0.000872665)",2.05829256132,0.976068692207,-0.790587995052,"(0.003, 0.0, 0.0, 0.0, 0.003, 0.0, 0.0, 0.0, 0.003)"
2022/03/09/18:24:03.921468,12125,1646846643,921071490,imu_iphone,0.00431568791679,0.10766170871,-0.873493174952,0.474763103692,"(0.00872665, 0.0, 0.0, 0.0, 0.00872665, 0.0, 0.0, 0.0, 0.00872665)",0.672400951385,0.196890413761,1.24495339394,"(0.000872665, 0.0, 0.0, 0.0, 0.000872665, 0.0, 0.0, 0.0, 0.000872665)",1.98302866325,1.15749646492,-0.756332082152,"(0.003, 0.0, 0.0, 0.0, 0.003, 0.0, 0.0, 0.0, 0.003)"
2022/03/09/18:24:03.945968,12126,1646846643,945637794,imu_iphone,0.00802046827405,0.110105308448,-0.8633015807,0.492466114471,"(0.00872665, 0.0, 0.0, 0.0, 0.00872665, 0.0, 0.0, 0.0, 0.00872665)",0.652523040771,0.218543067575,1.22044706345,"(0.000872665, 0.0, 0.0, 0.0, 0.000872665, 0.0, 0.0, 0.0, 0.000872665)",1.91065913692,1.33367913902,-0.755694150925,"(0.003, 0.0, 0.0, 0.0, 0.003, 0.0, 0.0, 0.0, 0.003)"
2022/03/09/18:24:03.976110,12127,1646846643,975464472,imu_iphone,0.0115642726907,0.112525729282,-0.852992290649,0.509517791584,"(0.00872665, 0.0, 0.0, 0.0, 0.00872665, 0.0, 0.0, 0.0, 0.00872665)",0.627554059029,0.234658226371,1.18838942051,"(0.000872665, 0.0, 0.0, 0.0, 0.000872665, 0.0, 0.0, 0.0, 0.000872665)",1.81923499659,1.49850176945,-0.718231040239,"(0.003, 0.0, 0.0, 0.0, 0.003, 0.0, 0.0, 0.0, 0.003)"
2022/03/09/18:24:04.009686,12128,1646846644,7612130,imu_iphone,0.0149020210194,0.114919313814,-0.842691541472,0.525777944586,"(0.00872665, 0.0, 0.0, 0.0, 0.00872665, 0.0, 0.0, 0.0, 0.00872665)",0.596137881279,0.250310450792,1.14160370827,"(0.000872665, 0.0, 0.0, 0.0, 0.000872665, 0.0, 0.0, 0.0, 0.000872665)",1.73283259124,1.67256358534,-0.67900323987,"(0.003, 0.0, 0.0, 0.0, 0.003, 0.0, 0.0, 0.0, 0.003)"
2022/03/09/18:24:04.045003,12129,1646846644,42487524,imu_iphone,0.0180107364278,0.117228258403,-0.832531062877,0.541133235119,"(0.00872665, 0.0, 0.0, 0.0, 0.00872665, 0.0, 0.0, 0.0, 0.00872665)",0.559806704521,0.25893676281,1.08794379234,"(0.000872665, 0.0, 0.0, 0.0, 0.000872665, 0.0, 0.0, 0.0, 0.000872665)",1.65550725728,1.83429347724,-0.649015794396,"(0.003, 0.0, 0.0, 0.0, 0.003, 0.0, 0.0, 0.0, 0.003)"
2022/03/09/18:24:04.068165,12130,1646846644,65255265,imu_iphone,0.020892795655,0.119379226846,-0.822659101901,0.555467454805,"(0.00872665, 0.0, 0.0, 0.0, 0.00872665, 0.0, 0.0, 0.0, 0.00872665)",0.520793676376,0.265624910593,1.02519249916,"(0.000872665, 0.0, 0.0, 0.0, 0.000872665, 0.0, 0.0, 0.0, 0.000872665)",1.56682809234,1.99854922011,-0.585308625698,"(0.003, 0.0, 0.0, 0.0, 0.003, 0.0, 0.0, 0.0, 0.003)"
2022/03/09/18:24:04.096172,12131,1646846644,94240203,imu_iphone,0.0235510628997,0.121311449421,-0.81323264557,0.56866646099,"(0.00872665, 0.0, 0.0, 0.0, 0.00872665, 0.0, 0.0, 0.0, 0.00872665)",0.473388284445,0.267145365477,0.950326502323,"(0.000872665, 0.0, 0.0, 0.0, 0.000872665, 0.0, 0.0, 0.0, 0.000872665)",1.49530378103,2.15319053248,-0.54166559279,"(0.003, 0.0, 0.0, 0.0, 0.003, 0.0, 0.0, 0.0, 0.003)"
2022/03/09/18:24:04.127075,12132,1646846644,126290415,imu_iphone,0.0260471591197,0.122892317448,-0.804430285402,0.580612555618,"(0.00872665, 0.0, 0.0, 0.0, 0.00872665, 0.0, 0.0, 0.0, 0.00872665)",0.422426611185,0.278968691826,0.866329908371,"(0.000872665, 0.0, 0.0, 0.0, 0.000872665, 0.0, 0.0, 0.0, 0.000872665)",1.43990199745,2.27956801236,-0.501822665334,"(0.003, 0.0, 0.0, 0.0, 0.003, 0.0, 0.0, 0.0, 0.003)"
