time,.header.seq,.header.stamp.secs,.header.stamp.nsecs,.header.frame_id,.orientation.x,.orientation.y,.orientation.z,.orientation.w,.orientation_covariance,.angular_velocity.x,.angular_velocity.y,.angular_velocity.z,.angular_velocity_covariance,.linear_acceleration.x,.linear_acceleration.y,.linear_acceleration.z,.linear_acceleration_covariance
2022/03/09/18:20:04.879350,4212,1646846404,875325899,imu_iphone,0.00349095646768,0.0205837306676,-0.918127009714,0.395735918624,"(0.00872665, 0.0, 0.0, 0.0, 0.00872665, 0.0, 0.0, 0.0, 0.00872665)",0.00197816779837,-0.00278559653088,0.00168046774343,"(0.000872665, 0.0, 0.0, 0.0, 0.000872665, 0.0, 0.0, 0.0, 0.000872665)",-0.00224803514779,-0.0051232207194,-0.109142373204,"(0.003, 0.0, 0.0, 0.0, 0.003, 0.0, 0.0, 0.0, 0.003)"
2022/03/09/18:20:04.923992,4213,1646846404,918608321,imu_iphone,0.00347780774403,0.0205734132602,-0.918124073938,0.395743381973,"(0.00872665, 0.0, 0.0, 0.0, 0.00872665, 0.0, 0.0, 0.0, 0.00872665)",-0.000895324163139,-0.000194733031094,-0.000246511306614,"(0.000872665, 0.0, 0.0, 0.0, 0.000872665, 0.0, 0.0, 0.0, 0.000872665)",-0.0069738644734,0.00264581026509,-0.120808153152,"(0.003, 0.0, 0.0, 0.0, 0.003, 0.0, 0.0, 0.0, 0.003)"
2022/03/09/18:20:04.935687,4214,1646846404,934494137,imu_iphone,0.00348836512601,0.0205564564572,-0.918125036187,0.3957419378,"(0.00872665, 0.0, 0.0, 0.0, 0.00872665, 0.0, 0.0, 0.0, 0.00872665)",3.77846881747e-05,0.00103802327067,-0.000240405555815,"(0.000872665, 0.0, 0.0, 0.0, 0.000872665, 0.0, 0.0, 0.0, 0.000872665)",-0.00586391676217,-0.00313405277207,-0.121694006324,"(0.003, 0.0, 0.0, 0.0, 0.003, 0.0, 0.0, 0.0, 0.003)"
2022/03/09/18:20:04.968417,4215,1646846404,964787868,imu_iphone,0.00350356964933,0.0205402321719,-0.918126884191,0.395738358499,"(0.00872665, 0.0, 0.0, 0.0, 0.00872665, 0.0, 0.0, 0.0, 0.00872665)",-0.00143261812627,0.000891022384167,-0.000296275597066,"(0.000872665, 0.0, 0.0, 0.0, 0.000872665, 0.0, 0.0, 0.0, 0.000872665)",-0.00238135166466,-0.00298745211214,-0.114048771858,"(0.003, 0.0, 0.0, 0.0, 0.003, 0.0, 0.0, 0.0, 0.003)"
2022/03/09/18:20:04.996332,4216,1646846404,993886577,imu_iphone,0.00350980702713,0.0205289717846,-0.91812447367,0.395744479963,"(0.00872665, 0.0, 0.0, 0.0, 0.00872665, 0.0, 0.0, 0.0, 0.00872665)",-0.00108693540096,0.00339432898909,0.000579657498747,"(0.000872665, 0.0, 0.0, 0.0, 0.000872665, 0.0, 0.0, 0.0, 0.000872665)",-0.00937001690269,-0.00535524554551,-0.117483426332,"(0.003, 0.0, 0.0, 0.0, 0.003, 0.0, 0.0, 0.0, 0.003)"
2022/03/09/18:20:05.024511,4217,1646846405,23781444,imu_iphone,0.00350008307026,0.0205263699835,-0.918126904345,0.395739061848,"(0.00872665, 0.0, 0.0, 0.0, 0.00872665, 0.0, 0.0, 0.0, 0.00872665)",-0.000921817496419,0.00170636642724,0.00133676826954,"(0.000872665, 0.0, 0.0, 0.0, 0.000872665, 0.0, 0.0, 0.0, 0.000872665)",-0.00230460695922,-0.00525322990492,-0.121222136021,"(0.003, 0.0, 0.0, 0.0, 0.003, 0.0, 0.0, 0.0, 0.003)"
2022/03/09/18:20:05.053684,4218,1646846405,53379462,imu_iphone,0.00349726119632,0.0205310983665,-0.918122896898,0.39574813879,"(0.00872665, 0.0, 0.0, 0.0, 0.00872665, 0.0, 0.0, 0.0, 0.00872665)",-0.00142899993807,-0.00275101047009,-0.000631507951766,"(0.000872665, 0.0, 0.0, 0.0, 0.000872665, 0.0, 0.0, 0.0, 0.000872665)",-0.00205010689795,-0.00241990674287,-0.119279690981,"(0.003, 0.0, 0.0, 0.0, 0.003, 0.0, 0.0, 0.0, 0.003)"
2022/03/09/18:20:05.233945,4219,1646846405,232162104,imu_iphone,0.00370539046901,0.020429391574,-0.918397988144,0.395112699636,"(0.00872665, 0.0, 0.0, 0.0, 0.00872665, 0.0, 0.0, 0.0, 0.00872665)",0.0152303352952,0.0164354387671,-0.0734959095716,"(0.000872665, 0.0, 0.0, 0.0, 0.000872665, 0.0, 0.0, 0.0, 0.000872665)",0.323674047701,-0.301617308725,-0.132249984741,"(0.003, 0.0, 0.0, 0.0, 0.003, 0.0, 0.0, 0.0, 0.003)"
2022/03/09/18:20:05.263581,4220,1646846405,262049515,imu_iphone,0.00417803377852,0.0202446629488,-0.918942746125,0.393848863143,"(0.00872665, 0.0, 0.0, 0.0, 0.00872665, 0.0, 0.0, 0.0, 0.00872665)",0.0231402497739,0.0207553133368,-0.104123234749,"(0.000872665, 0.0, 0.0, 0.0, 0.000872665, 0.0, 0.0, 0.0, 0.000872665)",0.257275624909,-0.288104448169,-0.137265141606,"(0.003, 0.0, 0.0, 0.0, 0.003, 0.0, 0.0, 0.0, 0.003)"
2022/03/09/18:20:05.292845,4221,1646846405,291187158,imu_iphone,0.00470328887518,0.0200378238499,-0.919478417829,0.392601329386,"(0.00872665, 0.0, 0.0, 0.0, 0.00872665, 0.0, 0.0, 0.0, 0.00872665)",-0.0106767499819,0.0272695831954,-0.0391596443951,"(0.000872665, 0.0, 0.0, 0.0, 0.000872665, 0.0, 0.0, 0.0, 0.000872665)",0.123476054929,-0.148947531302,-0.122823103666,"(0.003, 0.0, 0.0, 0.0, 0.003, 0.0, 0.0, 0.0, 0.003)"
2022/03/09/18:20:05.327706,4222,1646846405,326921037,imu_iphone,0.00472583042567,0.0193573935188,-0.919535506141,0.392501478709,"(0.00872665, 0.0, 0.0, 0.0, 0.00872665, 0.0, 0.0, 0.0, 0.00872665)",-0.0348944142461,0.0580280125141,0.0111131481826,"(0.000872665, 0.0, 0.0, 0.0, 0.000872665, 0.0, 0.0, 0.0, 0.000872665)",0.827318741977,0.730546153486,-0.180231066942,"(0.003, 0.0, 0.0, 0.0, 0.003, 0.0, 0.0, 0.0, 0.003)"
2022/03/09/18:20:05.352389,4223,1646846405,351509169,imu_iphone,0.00455939438462,0.0179376170618,-0.919370889391,0.392956259089,"(0.00872665, 0.0, 0.0, 0.0, 0.00872665, 0.0, 0.0, 0.0, 0.00872665)",-0.0615268871188,0.111096598208,0.0758212134242,"(0.000872665, 0.0, 0.0, 0.0, 0.000872665, 0.0, 0.0, 0.0, 0.000872665)",1.63291113093,0.845786880255,-0.0401013743877,"(0.003, 0.0, 0.0, 0.0, 0.003, 0.0, 0.0, 0.0, 0.003)"
2022/03/09/18:20:05.382258,4224,1646846405,381223708,imu_iphone,0.00407459968208,0.0155451065245,-0.918834609044,0.394315493639,"(0.00872665, 0.0, 0.0, 0.0, 0.00872665, 0.0, 0.0, 0.0, 0.00872665)",-0.119751341641,0.154494345188,0.11568402499,"(0.000872665, 0.0, 0.0, 0.0, 0.000872665, 0.0, 0.0, 0.0, 0.000872665)",1.66267594367,1.60513320208,-0.138289573789,"(0.003, 0.0, 0.0, 0.0, 0.003, 0.0, 0.0, 0.0, 0.003)"
2022/03/09/18:20:05.410554,4225,1646846405,410251164,imu_iphone,0.00287234885392,0.0124572316512,-0.918384415961,0.395482782826,"(0.00872665, 0.0, 0.0, 0.0, 0.00872665, 0.0, 0.0, 0.0, 0.00872665)",-0.183259531856,0.159403547645,0.0584022812545,"(0.000872665, 0.0, 0.0, 0.0, 0.000872665, 0.0, 0.0, 0.0, 0.000872665)",0.483140592054,2.09092587188,-0.188221871853,"(0.003, 0.0, 0.0, 0.0, 0.003, 0.0, 0.0, 0.0, 0.003)"
2022/03/09/18:20:05.442193,4226,1646846405,441853145,imu_iphone,0.000897640494843,0.00906308479552,-0.918186473972,0.396043752318,"(0.00872665, 0.0, 0.0, 0.0, 0.00872665, 0.0, 0.0, 0.0, 0.00872665)",-0.233359828591,0.156193912029,0.0418875850737,"(0.000872665, 0.0, 0.0, 0.0, 0.000872665, 0.0, 0.0, 0.0, 0.000872665)",0.130248336643,1.86354826659,-0.147424094081,"(0.003, 0.0, 0.0, 0.0, 0.003, 0.0, 0.0, 0.0, 0.003)"
2022/03/09/18:20:05.471069,4227,1646846405,470567042,imu_iphone,-0.00154554822869,0.00541307061365,-0.918042845499,0.396441223608,"(0.00872665, 0.0, 0.0, 0.0, 0.00872665, 0.0, 0.0, 0.0, 0.00872665)",-0.258130371571,0.163367182016,0.0121657177806,"(0.000872665, 0.0, 0.0, 0.0, 0.000872665, 0.0, 0.0, 0.0, 0.000872665)",0.399617867321,1.34918844,-0.26167868793,"(0.003, 0.0, 0.0, 0.0, 0.003, 0.0, 0.0, 0.0, 0.003)"
2022/03/09/18:20:05.500571,4228,1646846405,500350405,imu_iphone,-0.00401180493584,0.00137260859643,-0.91832324018,0.395808600098,"(0.00872665, 0.0, 0.0, 0.0, 0.00872665, 0.0, 0.0, 0.0, 0.00872665)",-0.255864173174,0.207156509161,-0.111783452332,"(0.000872665, 0.0, 0.0, 0.0, 0.000872665, 0.0, 0.0, 0.0, 0.000872665)",0.949077652395,0.900574779287,-0.150190996528,"(0.003, 0.0, 0.0, 0.0, 0.003, 0.0, 0.0, 0.0, 0.003)"
2022/03/09/18:20:05.531451,4229,1646846405,531227422,imu_iphone,-0.00595066372498,-0.00330049599608,-0.919334281389,0.393418575299,"(0.00872665, 0.0, 0.0, 0.0, 0.00872665, 0.0, 0.0, 0.0, 0.00872665)",-0.224659636617,0.267415672541,-0.208506271243,"(0.000872665, 0.0, 0.0, 0.0, 0.000872665, 0.0, 0.0, 0.0, 0.000872665)",1.73566191271,-0.098233140735,-0.225291464925,"(0.003, 0.0, 0.0, 0.0, 0.003, 0.0, 0.0, 0.0, 0.003)"
2022/03/09/18:20:05.562131,4230,1646846405,561842582,imu_iphone,-0.00714826761234,-0.00823680088848,-0.920246386643,0.391187480951,"(0.00872665, 0.0, 0.0, 0.0, 0.00872665, 0.0, 0.0, 0.0, 0.00872665)",-0.183576673269,0.272505760193,-0.0928765535355,"(0.000872665, 0.0, 0.0, 0.0, 0.000872665, 0.0, 0.0, 0.0, 0.000872665)",0.540526409,-0.647336620241,-0.244829351306,"(0.003, 0.0, 0.0, 0.0, 0.003, 0.0, 0.0, 0.0, 0.003)"
2022/03/09/18:20:05.590907,4231,1646846405,589869602,imu_iphone,-0.00828352420829,-0.0124780913581,-0.920404924773,0.390679478494,"(0.00872665, 0.0, 0.0, 0.0, 0.00872665, 0.0, 0.0, 0.0, 0.00872665)",-0.187013804913,0.181806519628,-0.036501891911,"(0.000872665, 0.0, 0.0, 0.0, 0.000872665, 0.0, 0.0, 0.0, 0.000872665)",-1.79209996909,0.331965728402,-0.166514083743,"(0.003, 0.0, 0.0, 0.0, 0.003, 0.0, 0.0, 0.0, 0.003)"
2022/03/09/18:20:05.619538,4232,1646846405,619078907,imu_iphone,-0.0106707752711,-0.0150138894899,-0.920894008333,0.389377635585,"(0.00872665, 0.0, 0.0, 0.0, 0.00872665, 0.0, 0.0, 0.0, 0.00872665)",-0.240340769291,0.00722155533731,-0.175294533372,"(0.000872665, 0.0, 0.0, 0.0, 0.000872665, 0.0, 0.0, 0.0, 0.000872665)",-4.24391964555,1.74248707518,-0.197210211754,"(0.003, 0.0, 0.0, 0.0, 0.003, 0.0, 0.0, 0.0, 0.003)"
2022/03/09/18:20:05.652172,4233,1646846405,649955160,imu_iphone,-0.015012223045,-0.0152999543589,-0.922138780593,0.386264952957,"(0.00872665, 0.0, 0.0, 0.0, 0.00872665, 0.0, 0.0, 0.0, 0.00872665)",-0.301629960537,-0.162490174174,-0.276293963194,"(0.000872665, 0.0, 0.0, 0.0, 0.000872665, 0.0, 0.0, 0.0, 0.000872665)",-4.68813261867,1.95746492878,-0.0804161721468,"(0.003, 0.0, 0.0, 0.0, 0.003, 0.0, 0.0, 0.0, 0.003)"
2022/03/09/18:20:05.682061,4234,1646846405,681674837,imu_iphone,-0.0209576218672,-0.0139481293857,-0.923776569017,0.38210349162,"(0.00872665, 0.0, 0.0, 0.0, 0.00872665, 0.0, 0.0, 0.0, 0.00872665)",-0.348691254854,-0.261433154345,-0.313542634249,"(0.000872665, 0.0, 0.0, 0.0, 0.000872665, 0.0, 0.0, 0.0, 0.000872665)",-2.84801326811,1.60883244306,-0.353126217127,"(0.003, 0.0, 0.0, 0.0, 0.003, 0.0, 0.0, 0.0, 0.003)"
2022/03/09/18:20:05.709393,4235,1646846405,708958049,imu_iphone,-0.0277971110514,-0.0116265125551,-0.925177001409,0.378338024639,"(0.00872665, 0.0, 0.0, 0.0, 0.00872665, 0.0, 0.0, 0.0, 0.00872665)",-0.372901171446,-0.327858835459,-0.193988233805,"(0.000872665, 0.0, 0.0, 0.0, 0.000872665, 0.0, 0.0, 0.0, 0.000872665)",-2.07729703546,0.914542388767,-0.338295339346,"(0.003, 0.0, 0.0, 0.0, 0.003, 0.0, 0.0, 0.0, 0.003)"
2022/03/09/18:20:05.738764,4236,1646846405,738346407,imu_iphone,-0.0350494584309,-0.00867509997069,-0.925511687836,0.376993890909,"(0.00872665, 0.0, 0.0, 0.0, 0.00872665, 0.0, 0.0, 0.0, 0.00872665)",-0.374055057764,-0.39129447937,0.0369481183589,"(0.000872665, 0.0, 0.0, 0.0, 0.000872665, 0.0, 0.0, 0.0, 0.000872665)",-2.53040654719,0.20245750308,-0.393363831639,"(0.003, 0.0, 0.0, 0.0, 0.003, 0.0, 0.0, 0.0, 0.003)"
2022/03/09/18:20:05.769206,4237,1646846405,768823634,imu_iphone,-0.0423576315681,-0.00517313127848,-0.924689419087,0.378323337886,"(0.00872665, 0.0, 0.0, 0.0, 0.00872665, 0.0, 0.0, 0.0, 0.00872665)",-0.344854146242,-0.443079382181,0.213044688106,"(0.000872665, 0.0, 0.0, 0.0, 0.000872665, 0.0, 0.0, 0.0, 0.000872665)",-2.63879930735,-0.620806048661,-0.444077317715,"(0.003, 0.0, 0.0, 0.0, 0.003, 0.0, 0.0, 0.0, 0.003)"
2022/03/09/18:20:05.835825,4238,1646846405,834202182,imu_iphone,-0.0493924136824,-0.00121463037225,-0.92288824439,0.38188506453,"(0.00872665, 0.0, 0.0, 0.0, 0.00872665, 0.0, 0.0, 0.0, 0.00872665)",-0.298518270254,-0.481376498938,0.386707663536,"(0.000872665, 0.0, 0.0, 0.0, 0.000872665, 0.0, 0.0, 0.0, 0.000872665)",-2.75376667678,-1.30162557989,-0.325566535592,"(0.003, 0.0, 0.0, 0.0, 0.003, 0.0, 0.0, 0.0, 0.003)"
2022/03/09/18:20:05.837480,4239,1646846405,837121318,imu_iphone,-0.0558662952526,0.00281082110044,-0.920056983967,0.38777081194,"(0.00872665, 0.0, 0.0, 0.0, 0.00872665, 0.0, 0.0, 0.0, 0.00872665)",-0.235157221556,-0.485215008259,0.549299478531,"(0.000872665, 0.0, 0.0, 0.0, 0.000872665, 0.0, 0.0, 0.0, 0.000872665)",-1.98840240061,-1.8805795978,-0.32005202651,"(0.003, 0.0, 0.0, 0.0, 0.003, 0.0, 0.0, 0.0, 0.003)"
2022/03/09/18:20:05.858290,4240,1646846405,857989295,imu_iphone,-0.0614749064023,0.00671931643505,-0.916442145236,0.39535993867,"(0.00872665, 0.0, 0.0, 0.0, 0.00872665, 0.0, 0.0, 0.0, 0.00872665)",-0.152672022581,-0.482983231544,0.657517790794,"(0.000872665, 0.0, 0.0, 0.0, 0.000872665, 0.0, 0.0, 0.0, 0.000872665)",-1.7573773022,-2.57407238424,-0.166492449045,"(0.003, 0.0, 0.0, 0.0, 0.003, 0.0, 0.0, 0.0, 0.003)"
2022/03/09/18:20:05.894989,4241,1646846405,891078142,imu_iphone,-0.0661269171686,0.0104994206172,-0.912126633118,0.404403261793,"(0.00872665, 0.0, 0.0, 0.0, 0.00872665, 0.0, 0.0, 0.0, 0.00872665)",-0.0759349688888,-0.467410713434,0.749968588352,"(0.000872665, 0.0, 0.0, 0.0, 0.000872665, 0.0, 0.0, 0.0, 0.000872665)",-1.51898632005,-2.54189866483,-0.18330845654,"(0.003, 0.0, 0.0, 0.0, 0.003, 0.0, 0.0, 0.0, 0.003)"
2022/03/09/18:20:05.922163,4242,1646846405,920845385,imu_iphone,-0.0699217352975,0.0141137647468,-0.907276426742,0.414440874016,"(0.00872665, 0.0, 0.0, 0.0, 0.00872665, 0.0, 0.0, 0.0, 0.00872665)",-0.00582420267165,-0.448331356049,0.782066524029,"(0.000872665, 0.0, 0.0, 0.0, 0.000872665, 0.0, 0.0, 0.0, 0.000872665)",-1.15100985624,-2.58023184121,-0.264339171052,"(0.003, 0.0, 0.0, 0.0, 0.003, 0.0, 0.0, 0.0, 0.003)"
2022/03/09/18:20:05.951967,4243,1646846405,948445065,imu_iphone,-0.072738881418,0.0176591793512,-0.902508089485,0.424118328923,"(0.00872665, 0.0, 0.0, 0.0, 0.00872665, 0.0, 0.0, 0.0, 0.00872665)",0.0606015734375,-0.403510630131,0.691396892071,"(0.000872665, 0.0, 0.0, 0.0, 0.000872665, 0.0, 0.0, 0.0, 0.000872665)",-0.246758859381,-2.68629477829,-0.246143805385,"(0.003, 0.0, 0.0, 0.0, 0.003, 0.0, 0.0, 0.0, 0.003)"
2022/03/09/18:20:05.978271,4244,1646846405,976785215,imu_iphone,-0.0744296870422,0.0210971033155,-0.898248162419,0.432626134936,"(0.00872665, 0.0, 0.0, 0.0, 0.00872665, 0.0, 0.0, 0.0, 0.00872665)",0.116310447454,-0.344842672348,0.615853130817,"(0.000872665, 0.0, 0.0, 0.0, 0.000872665, 0.0, 0.0, 0.0, 0.000872665)",0.430267509967,-2.65378425926,-0.289265851378,"(0.003, 0.0, 0.0, 0.0, 0.003, 0.0, 0.0, 0.0, 0.003)"
2022/03/09/18:20:06.008333,4245,1646846406,7916504,imu_iphone,-0.0753850600165,0.0240748165165,-0.893977575966,0.44106869035,"(0.00872665, 0.0, 0.0, 0.0, 0.00872665, 0.0, 0.0, 0.0, 0.00872665)",0.145879790187,-0.299423605204,0.666216015816,"(0.000872665, 0.0, 0.0, 0.0, 0.000872665, 0.0, 0.0, 0.0, 0.000872665)",0.541740729511,-2.02161750913,-0.323303663135,"(0.003, 0.0, 0.0, 0.0, 0.003, 0.0, 0.0, 0.0, 0.003)"
2022/03/09/18:20:06.041730,4246,1646846406,41479619,imu_iphone,-0.0759546201663,0.0263827347012,-0.889081463352,0.450631777074,"(0.00872665, 0.0, 0.0, 0.0, 0.00872665, 0.0, 0.0, 0.0, 0.00872665)",0.169782936573,-0.266708850861,0.749189853668,"(0.000872665, 0.0, 0.0, 0.0, 0.000872665, 0.0, 0.0, 0.0, 0.000872665)",0.555457347259,-2.13590499356,-0.372036112547,"(0.003, 0.0, 0.0, 0.0, 0.003, 0.0, 0.0, 0.0, 0.003)"
2022/03/09/18:20:06.066705,4247,1646846406,66118917,imu_iphone,-0.0762862832772,0.0284990851625,-0.883683964647,0.460945610408,"(0.00872665, 0.0, 0.0, 0.0, 0.00872665, 0.0, 0.0, 0.0, 0.00872665)",0.199306815863,-0.269875228405,0.772762835026,"(0.000872665, 0.0, 0.0, 0.0, 0.000872665, 0.0, 0.0, 0.0, 0.000872665)",-0.0170748929679,-2.46479377091,-0.397160428762,"(0.003, 0.0, 0.0, 0.0, 0.003, 0.0, 0.0, 0.0, 0.003)"
2022/03/09/18:20:06.096307,4248,1646846406,95688118,imu_iphone,-0.0765362205197,0.0310971447812,-0.878314603177,0.470891316952,"(0.00872665, 0.0, 0.0, 0.0, 0.00872665, 0.0, 0.0, 0.0, 0.00872665)",0.215032696724,-0.301298439503,0.694791913033,"(0.000872665, 0.0, 0.0, 0.0, 0.000872665, 0.0, 0.0, 0.0, 0.000872665)",-0.350744353831,-2.33944116175,-0.482378334403,"(0.003, 0.0, 0.0, 0.0, 0.003, 0.0, 0.0, 0.0, 0.003)"
2022/03/09/18:20:06.128711,4249,1646846406,127656574,imu_iphone,-0.0769243285867,0.0343135025486,-0.873211102796,0.480007917818,"(0.00872665, 0.0, 0.0, 0.0, 0.00872665, 0.0, 0.0, 0.0, 0.00872665)",0.220495700836,-0.323183268309,0.642679274082,"(0.000872665, 0.0, 0.0, 0.0, 0.000872665, 0.0, 0.0, 0.0, 0.000872665)",0.138916687667,-2.07369953603,-0.432589293122,"(0.003, 0.0, 0.0, 0.0, 0.003, 0.0, 0.0, 0.0, 0.003)"
2022/03/09/18:20:06.161484,4250,1646846406,161182857,imu_iphone,-0.0772981742159,0.0382832406196,-0.868810528834,0.487573226027,"(0.00872665, 0.0, 0.0, 0.0, 0.00872665, 0.0, 0.0, 0.0, 0.00872665)",0.240020930767,-0.341262727976,0.471214801073,"(0.000872665, 0.0, 0.0, 0.0, 0.000872665, 0.0, 0.0, 0.0, 0.000872665)",0.463657304049,-2.33931983203,-0.425752728581,"(0.003, 0.0, 0.0, 0.0, 0.003, 0.0, 0.0, 0.0, 0.003)"
2022/03/09/18:20:06.186237,4251,1646846406,185969370,imu_iphone,-0.0770933168233,0.043303035856,-0.865874837185,0.492384234026,"(0.00872665, 0.0, 0.0, 0.0, 0.00872665, 0.0, 0.0, 0.0, 0.00872665)",0.28431007266,-0.334261029959,0.200179591775,"(0.000872665, 0.0, 0.0, 0.0, 0.000872665, 0.0, 0.0, 0.0, 0.000872665)",1.19451204434,-2.78163479894,-0.465799723864,"(0.003, 0.0, 0.0, 0.0, 0.003, 0.0, 0.0, 0.0, 0.003)"
2022/03/09/18:20:06.215114,4252,1646846406,214847112,imu_iphone,-0.0756332351727,0.0495947878411,-0.86505873856,0.493450453033,"(0.00872665, 0.0, 0.0, 0.0, 0.00872665, 0.0, 0.0, 0.0, 0.00872665)",0.341001480818,-0.316568702459,-0.143186479807,"(0.000872665, 0.0, 0.0, 0.0, 0.000872665, 0.0, 0.0, 0.0, 0.000872665)",1.7730735679,-3.14361428529,-0.500734498501,"(0.003, 0.0, 0.0, 0.0, 0.003, 0.0, 0.0, 0.0, 0.003)"
2022/03/09/18:20:06.249688,4253,1646846406,248280257,imu_iphone,-0.0724698862681,0.0571164499223,-0.866469957963,0.490627800558,"(0.00872665, 0.0, 0.0, 0.0, 0.00872665, 0.0, 0.0, 0.0, 0.00872665)",0.399858832359,-0.297507494688,-0.437801867723,"(0.000872665, 0.0, 0.0, 0.0, 0.000872665, 0.0, 0.0, 0.0, 0.000872665)",1.90854171395,-3.03604452074,-0.521361136436,"(0.003, 0.0, 0.0, 0.0, 0.003, 0.0, 0.0, 0.0, 0.003)"
2022/03/09/18:20:06.281572,4254,1646846406,281340958,imu_iphone,-0.0676970562377,0.065589081453,-0.869486995603,0.484878897715,"(0.00872665, 0.0, 0.0, 0.0, 0.00872665, 0.0, 0.0, 0.0, 0.00872665)",0.454137176275,-0.29220366478,-0.675308704376,"(0.000872665, 0.0, 0.0, 0.0, 0.000872665, 0.0, 0.0, 0.0, 0.000872665)",1.46055831,-2.44406904593,-0.516807909608,"(0.003, 0.0, 0.0, 0.0, 0.003, 0.0, 0.0, 0.0, 0.003)"
2022/03/09/18:20:06.305158,4255,1646846406,304866721,imu_iphone,-0.0613524570317,0.0750693570539,-0.873916588577,0.476309000396,"(0.00872665, 0.0, 0.0, 0.0, 0.00872665, 0.0, 0.0, 0.0, 0.00872665)",0.502865254879,-0.309017956257,-0.927178382874,"(0.000872665, 0.0, 0.0, 0.0, 0.000872665, 0.0, 0.0, 0.0, 0.000872665)",0.771072328091,-2.18980316564,-0.6927617383,"(0.003, 0.0, 0.0, 0.0, 0.003, 0.0, 0.0, 0.0, 0.003)"
2022/03/09/18:20:06.334685,4256,1646846406,334301776,imu_iphone,-0.0530779575437,0.0850874105686,-0.879633094404,0.464960731907,"(0.00872665, 0.0, 0.0, 0.0, 0.00872665, 0.0, 0.0, 0.0, 0.00872665)",0.550935328007,-0.272977769375,-1.1557404995,"(0.000872665, 0.0, 0.0, 0.0, 0.000872665, 0.0, 0.0, 0.0, 0.000872665)",1.78038565725,-1.8188875258,-0.644740310311,"(0.003, 0.0, 0.0, 0.0, 0.003, 0.0, 0.0, 0.0, 0.003)"
2022/03/09/18:20:06.372077,4257,1646846406,371027125,imu_iphone,-0.0427699190045,0.0943920914022,-0.886027323783,0.451903140749,"(0.00872665, 0.0, 0.0, 0.0, 0.00872665, 0.0, 0.0, 0.0, 0.00872665)",0.577653586864,-0.191268384457,-1.22959494591,"(0.000872665, 0.0, 0.0, 0.0, 0.000872665, 0.0, 0.0, 0.0, 0.000872665)",2.69835027516,-1.10380506501,-0.778770187497,"(0.003, 0.0, 0.0, 0.0, 0.003, 0.0, 0.0, 0.0, 0.003)"
2022/03/09/18:20:06.394386,4258,1646846406,394088195,imu_iphone,-0.0312060985825,0.102043729245,-0.892302005253,0.438646085306,"(0.00872665, 0.0, 0.0, 0.0, 0.00872665, 0.0, 0.0, 0.0, 0.00872665)",0.568507909775,-0.101304247975,-1.20246016979,"(0.000872665, 0.0, 0.0, 0.0, 0.000872665, 0.0, 0.0, 0.0, 0.000872665)",2.61637552768,-0.0376938929781,-0.620980734229,"(0.003, 0.0, 0.0, 0.0, 0.003, 0.0, 0.0, 0.0, 0.003)"
2022/03/09/18:20:06.432637,4259,1646846406,425100338,imu_iphone,-0.0188723612446,0.107606101383,-0.898241426529,0.42570776431,"(0.00872665, 0.0, 0.0, 0.0, 0.00872665, 0.0, 0.0, 0.0, 0.00872665)",0.560968458652,0.00409967731684,-1.19119906425,"(0.000872665, 0.0, 0.0, 0.0, 0.000872665, 0.0, 0.0, 0.0, 0.000872665)",2.87596529782,0.261104308628,-0.654794597626,"(0.003, 0.0, 0.0, 0.0, 0.003, 0.0, 0.0, 0.0, 0.003)"
2022/03/09/18:20:06.456792,4260,1646846406,455159257,imu_iphone,-0.0057050669563,0.110864154895,-0.903941538453,0.412996714793,"(0.00872665, 0.0, 0.0, 0.0, 0.00872665, 0.0, 0.0, 0.0, 0.00872665)",0.558027982712,0.119023755193,-1.10685217381,"(0.000872665, 0.0, 0.0, 0.0, 0.000872665, 0.0, 0.0, 0.0, 0.000872665)",3.16983349264,0.03343781434,-0.617953045964,"(0.003, 0.0, 0.0, 0.0, 0.003, 0.0, 0.0, 0.0, 0.003)"
2022/03/09/18:20:06.491998,4261,1646846406,490547894,imu_iphone,0.00736051645342,0.111875219035,-0.908949888264,0.401546832622,"(0.00872665, 0.0, 0.0, 0.0, 0.00872665, 0.0, 0.0, 0.0, 0.00872665)",0.517325222492,0.217805236578,-0.966647744179,"(0.000872665, 0.0, 0.0, 0.0, 0.000872665, 0.0, 0.0, 0.0, 0.000872665)",2.4935413143,1.09258952066,-0.636417383552,"(0.003, 0.0, 0.0, 0.0, 0.003, 0.0, 0.0, 0.0, 0.003)"
2022/03/09/18:20:06.513649,4262,1646846406,513343812,imu_iphone,0.0197416309003,0.110555587835,-0.913410340465,0.391240693104,"(0.00872665, 0.0, 0.0, 0.0, 0.00872665, 0.0, 0.0, 0.0, 0.00872665)",0.457590252161,0.322567611933,-0.843776345253,"(0.000872665, 0.0, 0.0, 0.0, 0.000872665, 0.0, 0.0, 0.0, 0.000872665)",2.87726045609,2.09263048142,-0.626464253068,"(0.003, 0.0, 0.0, 0.0, 0.003, 0.0, 0.0, 0.0, 0.003)"
2022/03/09/18:20:06.543864,4263,1646846406,543325265,imu_iphone,0.0312689782532,0.107388001273,-0.917202044831,0.382400937682,"(0.00872665, 0.0, 0.0, 0.0, 0.00872665, 0.0, 0.0, 0.0, 0.00872665)",0.42945587635,0.398439347744,-0.673285245895,"(0.000872665, 0.0, 0.0, 0.0, 0.000872665, 0.0, 0.0, 0.0, 0.000872665)",2.13049938887,1.28173101336,-0.58972853601,"(0.003, 0.0, 0.0, 0.0, 0.003, 0.0, 0.0, 0.0, 0.003)"
2022/03/09/18:20:06.572958,4264,1646846406,572582484,imu_iphone,0.0419094790439,0.102946000506,-0.920162354673,0.37542903136,"(0.00872665, 0.0, 0.0, 0.0, 0.00872665, 0.0, 0.0, 0.0, 0.00872665)",0.399296969175,0.462007731199,-0.507253348827,"(0.000872665, 0.0, 0.0, 0.0, 0.000872665, 0.0, 0.0, 0.0, 0.000872665)",1.90011382967,1.42284888536,-0.656130686402,"(0.003, 0.0, 0.0, 0.0, 0.003, 0.0, 0.0, 0.0, 0.003)"
2022/03/09/18:20:06.609552,4265,1646846406,608007298,imu_iphone,0.0517155383509,0.0975881460668,-0.922351932661,0.370228266286,"(0.00872665, 0.0, 0.0, 0.0, 0.00872665, 0.0, 0.0, 0.0, 0.00872665)",0.377958476543,0.513151109219,-0.354801177979,"(0.000872665, 0.0, 0.0, 0.0, 0.000872665, 0.0, 0.0, 0.0, 0.000872665)",1.60859884679,1.51226582274,-0.660996154547,"(0.003, 0.0, 0.0, 0.0, 0.003, 0.0, 0.0, 0.0, 0.003)"
2022/03/09/18:20:06.633156,4266,1646846406,632803468,imu_iphone,0.0607483709836,0.0916949500095,-0.923802592835,0.366729383928,"(0.00872665, 0.0, 0.0, 0.0, 0.00872665, 0.0, 0.0, 0.0, 0.00872665)",0.35951295495,0.545634806156,-0.210187152028,"(0.000872665, 0.0, 0.0, 0.0, 0.000872665, 0.0, 0.0, 0.0, 0.000872665)",1.29941767126,1.62491287082,-0.692871665955,"(0.003, 0.0, 0.0, 0.0, 0.003, 0.0, 0.0, 0.0, 0.003)"
2022/03/09/18:20:06.667427,4267,1646846406,665184028,imu_iphone,0.0690535837883,0.0856066049833,-0.924518369216,0.364923138116,"(0.00872665, 0.0, 0.0, 0.0, 0.00872665, 0.0, 0.0, 0.0, 0.00872665)",0.340240120888,0.562899053097,-0.0696863681078,"(0.000872665, 0.0, 0.0, 0.0, 0.000872665, 0.0, 0.0, 0.0, 0.000872665)",0.990753535777,1.74020183712,-0.670689083934,"(0.003, 0.0, 0.0, 0.0, 0.003, 0.0, 0.0, 0.0, 0.003)"
2022/03/09/18:20:06.692518,4268,1646846406,692113409,imu_iphone,0.076633492327,0.0796438091574,-0.924512391585,0.364775286064,"(0.00872665, 0.0, 0.0, 0.0, 0.00872665, 0.0, 0.0, 0.0, 0.00872665)",0.321556895971,0.573663592339,0.057731796056,"(0.000872665, 0.0, 0.0, 0.0, 0.000872665, 0.0, 0.0, 0.0, 0.000872665)",0.6822906176,1.89388888389,-0.686943758726,"(0.003, 0.0, 0.0, 0.0, 0.003, 0.0, 0.0, 0.0, 0.003)"
2022/03/09/18:20:06.728418,4269,1646846406,727381246,imu_iphone,0.0835006850351,0.0740453941853,-0.923798123644,0.366253930969,"(0.00872665, 0.0, 0.0, 0.0, 0.00872665, 0.0, 0.0, 0.0, 0.00872665)",0.296744644642,0.561850607395,0.187860608101,"(0.000872665, 0.0, 0.0, 0.0, 0.000872665, 0.0, 0.0, 0.0, 0.000872665)",0.410777424574,2.01588694543,-0.651821288466,"(0.003, 0.0, 0.0, 0.0, 0.003, 0.0, 0.0, 0.0, 0.003)"
2022/03/09/18:20:06.754943,4270,1646846406,753769138,imu_iphone,0.0895943633398,0.0690240355807,-0.922374120595,0.369370429551,"(0.00872665, 0.0, 0.0, 0.0, 0.00872665, 0.0, 0.0, 0.0, 0.00872665)",0.268952071667,0.543988347054,0.311462134123,"(0.000872665, 0.0, 0.0, 0.0, 0.000872665, 0.0, 0.0, 0.0, 0.000872665)",0.163638496175,2.19046404719,-0.618005086184,"(0.003, 0.0, 0.0, 0.0, 0.003, 0.0, 0.0, 0.0, 0.003)"
2022/03/09/18:20:06.783185,4271,1646846406,781235398,imu_iphone,0.094805860754,0.0647643595545,-0.920191234478,0.374253281199,"(0.00872665, 0.0, 0.0, 0.0, 0.00872665, 0.0, 0.0, 0.0, 0.00872665)",0.232491195202,0.519409775734,0.448340654373,"(0.000872665, 0.0, 0.0, 0.0, 0.000872665, 0.0, 0.0, 0.0, 0.000872665)",-0.0177094255015,2.34197183669,-0.589304028153,"(0.003, 0.0, 0.0, 0.0, 0.003, 0.0, 0.0, 0.0, 0.003)"
2022/03/09/18:20:06.813171,4272,1646846406,810756650,imu_iphone,0.0990366888767,0.0613345178191,-0.917203348665,0.38100896102,"(0.00872665, 0.0, 0.0, 0.0, 0.00872665, 0.0, 0.0, 0.0, 0.00872665)",0.188496500254,0.490464091301,0.581584334373,"(0.000872665, 0.0, 0.0, 0.0, 0.000872665, 0.0, 0.0, 0.0, 0.000872665)",-0.153766386174,2.50446829855,-0.540775646567,"(0.003, 0.0, 0.0, 0.0, 0.003, 0.0, 0.0, 0.0, 0.003)"
2022/03/09/18:20:06.843672,4273,1646846406,841178141,imu_iphone,0.102253468783,0.0587012103878,-0.913442698148,0.389513585414,"(0.00872665, 0.0, 0.0, 0.0, 0.00872665, 0.0, 0.0, 0.0, 0.00872665)",0.134147524834,0.465139746666,0.699388802052,"(0.000872665, 0.0, 0.0, 0.0, 0.000872665, 0.0, 0.0, 0.0, 0.000872665)",-0.242702316977,2.62724988699,-0.530064132214,"(0.003, 0.0, 0.0, 0.0, 0.003, 0.0, 0.0, 0.0, 0.003)"
2022/03/09/18:20:06.871459,4274,1646846406,870983590,imu_iphone,0.10436527765,0.0567357554014,-0.908931739572,0.399664904237,"(0.00872665, 0.0, 0.0, 0.0, 0.00872665, 0.0, 0.0, 0.0, 0.00872665)",0.0732424929738,0.442838609219,0.813890635967,"(0.000872665, 0.0, 0.0, 0.0, 0.000872665, 0.0, 0.0, 0.0, 0.000872665)",-0.27361961592,2.7676997146,-0.472352113724,"(0.003, 0.0, 0.0, 0.0, 0.003, 0.0, 0.0, 0.0, 0.003)"
2022/03/09/18:20:06.900759,4275,1646846406,900468981,imu_iphone,0.105373291822,0.0552387225438,-0.903701171996,0.411302011466,"(0.00872665, 0.0, 0.0, 0.0, 0.00872665, 0.0, 0.0, 0.0, 0.00872665)",0.00867244414985,0.432424038649,0.913180828094,"(0.000872665, 0.0, 0.0, 0.0, 0.000872665, 0.0, 0.0, 0.0, 0.000872665)",-0.285108371414,2.84578986436,-0.466624765992,"(0.003, 0.0, 0.0, 0.0, 0.003, 0.0, 0.0, 0.0, 0.003)"
2022/03/09/18:20:06.930360,4276,1646846406,930012117,imu_iphone,0.105371276154,0.0539210467719,-0.897805377695,0.424187362681,"(0.00872665, 0.0, 0.0, 0.0, 0.00872665, 0.0, 0.0, 0.0, 0.00872665)",-0.0546161010861,0.424028933048,0.99337220192,"(0.000872665, 0.0, 0.0, 0.0, 0.000872665, 0.0, 0.0, 0.0, 0.000872665)",-0.261098534502,2.88461362213,-0.426671910882,"(0.003, 0.0, 0.0, 0.0, 0.003, 0.0, 0.0, 0.0, 0.003)"
2022/03/09/18:20:06.963417,4277,1646846406,961485230,imu_iphone,0.104444424276,0.0525137713053,-0.891349788437,0.437983128345,"(0.00872665, 0.0, 0.0, 0.0, 0.00872665, 0.0, 0.0, 0.0, 0.00872665)",-0.123137511313,0.434357136488,1.04860043526,"(0.000872665, 0.0, 0.0, 0.0, 0.000872665, 0.0, 0.0, 0.0, 0.000872665)",-0.237502643913,2.87537355959,-0.452549933195,"(0.003, 0.0, 0.0, 0.0, 0.003, 0.0, 0.0, 0.0, 0.003)"
2022/03/09/18:20:06.990898,4278,1646846406,990516803,imu_iphone,0.102833602742,0.0506806034047,-0.88446429476,0.452304806386,"(0.00872665, 0.0, 0.0, 0.0, 0.00872665, 0.0, 0.0, 0.0, 0.00872665)",-0.186501085758,0.449012249708,1.07976543903,"(0.000872665, 0.0, 0.0, 0.0, 0.000872665, 0.0, 0.0, 0.0, 0.000872665)",-0.23278350234,2.80096277028,-0.440940286517,"(0.003, 0.0, 0.0, 0.0, 0.003, 0.0, 0.0, 0.0, 0.003)"
2022/03/09/18:20:07.020904,4279,1646846407,19466257,imu_iphone,0.100783286514,0.0481730671488,-0.877330252363,0.466705167156,"(0.00872665, 0.0, 0.0, 0.0, 0.00872665, 0.0, 0.0, 0.0, 0.00872665)",-0.241110920906,0.470093935728,1.07418596745,"(0.000872665, 0.0, 0.0, 0.0, 0.000872665, 0.0, 0.0, 0.0, 0.000872665)",-0.278800102808,2.70685914338,-0.467702992558,"(0.003, 0.0, 0.0, 0.0, 0.003, 0.0, 0.0, 0.0, 0.003)"
2022/03/09/18:20:07.049962,4280,1646846407,49457840,imu_iphone,0.0985348682322,0.0447990211286,-0.870192020423,0.480676372459,"(0.00872665, 0.0, 0.0, 0.0, 0.00872665, 0.0, 0.0, 0.0, 0.00872665)",-0.28340524435,0.49873393774,1.03292429447,"(0.000872665, 0.0, 0.0, 0.0, 0.000872665, 0.0, 0.0, 0.0, 0.000872665)",-0.361100247838,2.57287224323,-0.497512682676,"(0.003, 0.0, 0.0, 0.0, 0.003, 0.0, 0.0, 0.0, 0.003)"
2022/03/09/18:20:07.093364,4281,1646846407,92011728,imu_iphone,0.0963160417347,0.0404421974755,-0.863286562256,0.493785338175,"(0.00872665, 0.0, 0.0, 0.0, 0.00872665, 0.0, 0.0, 0.0, 0.00872665)",-0.329349726439,0.514924645424,0.956032395363,"(0.000872665, 0.0, 0.0, 0.0, 0.000872665, 0.0, 0.0, 0.0, 0.000872665)",-0.515015226379,2.43452171221,-0.558234263062,"(0.003, 0.0, 0.0, 0.0, 0.003, 0.0, 0.0, 0.0, 0.003)"
2022/03/09/18:20:07.112688,4282,1646846407,110227265,imu_iphone,0.0942845619566,0.0350735162613,-0.856893200609,0.505583141119,"(0.00872665, 0.0, 0.0, 0.0, 0.00872665, 0.0, 0.0, 0.0, 0.00872665)",-0.358950078487,0.536876499653,0.849259793758,"(0.000872665, 0.0, 0.0, 0.0, 0.000872665, 0.0, 0.0, 0.0, 0.000872665)",-0.693173236102,2.27224247441,-0.581303282976,"(0.003, 0.0, 0.0, 0.0, 0.003, 0.0, 0.0, 0.0, 0.003)"
2022/03/09/18:20:07.140060,4283,1646846407,139637361,imu_iphone,0.0924612286754,0.0287531070262,-0.851252818365,0.515744916848,"(0.00872665, 0.0, 0.0, 0.0, 0.00872665, 0.0, 0.0, 0.0, 0.00872665)",-0.387990772724,0.538906276226,0.714745879173,"(0.000872665, 0.0, 0.0, 0.0, 0.000872665, 0.0, 0.0, 0.0, 0.000872665)",-0.936186149865,2.11332012311,-0.620445713997,"(0.003, 0.0, 0.0, 0.0, 0.003, 0.0, 0.0, 0.0, 0.003)"
2022/03/09/18:20:07.171128,4284,1646846407,170751336,imu_iphone,0.0907935106587,0.0216061385237,-0.846559547435,0.524048323961,"(0.00872665, 0.0, 0.0, 0.0, 0.00872665, 0.0, 0.0, 0.0, 0.00872665)",-0.410896003246,0.529080629349,0.563540935516,"(0.000872665, 0.0, 0.0, 0.0, 0.000872665, 0.0, 0.0, 0.0, 0.000872665)",-1.20349950716,1.95696338385,-0.641217362881,"(0.003, 0.0, 0.0, 0.0, 0.003, 0.0, 0.0, 0.0, 0.003)"
2022/03/09/18:20:07.202933,4285,1646846407,201379649,imu_iphone,0.0891131027085,0.0138311870194,-0.842908684264,0.530445570425,"(0.00872665, 0.0, 0.0, 0.0, 0.00872665, 0.0, 0.0, 0.0, 0.00872665)",-0.435462534428,0.500716090202,0.403816342354,"(0.000872665, 0.0, 0.0, 0.0, 0.000872665, 0.0, 0.0, 0.0, 0.000872665)",-1.4791701436,1.80614439636,-0.653830391765,"(0.003, 0.0, 0.0, 0.0, 0.003, 0.0, 0.0, 0.0, 0.003)"
2022/03/09/18:20:07.229399,4286,1646846407,229051204,imu_iphone,0.0871968107113,0.00557689590274,-0.840431015476,0.534828311386,"(0.00872665, 0.0, 0.0, 0.0, 0.00872665, 0.0, 0.0, 0.0, 0.00872665)",-0.458251953125,0.463314801455,0.237837836146,"(0.000872665, 0.0, 0.0, 0.0, 0.000872665, 0.0, 0.0, 0.0, 0.000872665)",-1.76052763581,1.63389434025,-0.635975334048,"(0.003, 0.0, 0.0, 0.0, 0.003, 0.0, 0.0, 0.0, 0.003)"
2022/03/09/18:20:07.259216,4287,1646846407,258349988,imu_iphone,0.0847572092663,-0.00284981931829,-0.839019466652,0.537451791872,"(0.00872665, 0.0, 0.0, 0.0, 0.00872665, 0.0, 0.0, 0.0, 0.00872665)",-0.479552686214,0.403253942728,0.092275775969,"(0.000872665, 0.0, 0.0, 0.0, 0.000872665, 0.0, 0.0, 0.0, 0.000872665)",-1.99162626296,1.46637438923,-0.622653622627,"(0.003, 0.0, 0.0, 0.0, 0.003, 0.0, 0.0, 0.0, 0.003)"
2022/03/09/18:20:07.290956,4288,1646846407,290417109,imu_iphone,0.0815912937077,-0.0111772755565,-0.8385727758,0.538529134763,"(0.00872665, 0.0, 0.0, 0.0, 0.00872665, 0.0, 0.0, 0.0, 0.00872665)",-0.501950204372,0.332967758179,-0.0379991531372,"(0.000872665, 0.0, 0.0, 0.0, 0.000872665, 0.0, 0.0, 0.0, 0.000872665)",-2.23212092713,1.29675543398,-0.603236188889,"(0.003, 0.0, 0.0, 0.0, 0.003, 0.0, 0.0, 0.0, 0.003)"
2022/03/09/18:20:07.323246,4289,1646846407,321981933,imu_iphone,0.0774801740502,-0.019168789342,-0.838925242522,0.538362162122,"(0.00872665, 0.0, 0.0, 0.0, 0.00872665, 0.0, 0.0, 0.0, 0.00872665)",-0.52503323555,0.253743350506,-0.145328223705,"(0.000872665, 0.0, 0.0, 0.0, 0.000872665, 0.0, 0.0, 0.0, 0.000872665)",-2.38306343704,1.11563836768,-0.586332473159,"(0.003, 0.0, 0.0, 0.0, 0.003, 0.0, 0.0, 0.0, 0.003)"
2022/03/09/18:20:07.350529,4290,1646846407,347831754,imu_iphone,0.0723362530889,-0.0266582336309,-0.839969005012,0.537130222282,"(0.00872665, 0.0, 0.0, 0.0, 0.00872665, 0.0, 0.0, 0.0, 0.00872665)",-0.547440946102,0.175829127431,-0.239029079676,"(0.000872665, 0.0, 0.0, 0.0, 0.000872665, 0.0, 0.0, 0.0, 0.000872665)",-2.42011548847,0.947551529109,-0.573754527569,"(0.003, 0.0, 0.0, 0.0, 0.003, 0.0, 0.0, 0.0, 0.003)"
2022/03/09/18:20:07.381147,4291,1646846407,377354691,imu_iphone,0.0661212599682,-0.0336025826875,-0.841564835832,0.53503969246,"(0.00872665, 0.0, 0.0, 0.0, 0.00872665, 0.0, 0.0, 0.0, 0.00872665)",-0.57444524765,0.101834461093,-0.319557398558,"(0.000872665, 0.0, 0.0, 0.0, 0.000872665, 0.0, 0.0, 0.0, 0.000872665)",-2.40288710609,0.769704518169,-0.593073728085,"(0.003, 0.0, 0.0, 0.0, 0.003, 0.0, 0.0, 0.0, 0.003)"
2022/03/09/18:20:07.407704,4292,1646846407,407222091,imu_iphone,0.0588231720609,-0.0399292126551,-0.843650034276,0.532165493123,"(0.00872665, 0.0, 0.0, 0.0, 0.00872665, 0.0, 0.0, 0.0, 0.00872665)",-0.596838653088,0.0321488641202,-0.386481642723,"(0.000872665, 0.0, 0.0, 0.0, 0.000872665, 0.0, 0.0, 0.0, 0.000872665)",-2.33430131301,0.575321873724,-0.581616109014,"(0.003, 0.0, 0.0, 0.0, 0.003, 0.0, 0.0, 0.0, 0.003)"
2022/03/09/18:20:07.443770,4293,1646846407,442287723,imu_iphone,0.0505356211526,-0.0455927029599,-0.846126335078,0.528618654153,"(0.00872665, 0.0, 0.0, 0.0, 0.00872665, 0.0, 0.0, 0.0, 0.00872665)",-0.612466394901,-0.0273453835398,-0.444258898497,"(0.000872665, 0.0, 0.0, 0.0, 0.000872665, 0.0, 0.0, 0.0, 0.000872665)",-2.24725644484,0.366226209439,-0.607016998529,"(0.003, 0.0, 0.0, 0.0, 0.003, 0.0, 0.0, 0.0, 0.003)"
2022/03/09/18:20:07.467473,4294,1646846407,466973749,imu_iphone,0.0413224535667,-0.0506031412144,-0.848965253527,0.524394675063,"(0.00872665, 0.0, 0.0, 0.0, 0.00872665, 0.0, 0.0, 0.0, 0.00872665)",-0.631879329681,-0.0830765813589,-0.499553322792,"(0.000872665, 0.0, 0.0, 0.0, 0.000872665, 0.0, 0.0, 0.0, 0.000872665)",-2.16272295579,0.138468955401,-0.610796638727,"(0.003, 0.0, 0.0, 0.0, 0.003, 0.0, 0.0, 0.0, 0.003)"
2022/03/09/18:20:07.498384,4295,1646846407,496607617,imu_iphone,0.0312650280944,-0.0549467508387,-0.85216101461,0.519446780497,"(0.00872665, 0.0, 0.0, 0.0, 0.00872665, 0.0, 0.0, 0.0, 0.00872665)",-0.640838265419,-0.131806820631,-0.556048750877,"(0.000872665, 0.0, 0.0, 0.0, 0.000872665, 0.0, 0.0, 0.0, 0.000872665)",-2.04818053275,-0.114050928019,-0.618790367246,"(0.003, 0.0, 0.0, 0.0, 0.003, 0.0, 0.0, 0.0, 0.003)"
2022/03/09/18:20:07.530293,4296,1646846407,528748689,imu_iphone,0.0205131391153,-0.0585299795764,-0.85572239877,0.51370480712,"(0.00872665, 0.0, 0.0, 0.0, 0.00872665, 0.0, 0.0, 0.0, 0.00872665)",-0.647159159184,-0.182383418083,-0.611448943615,"(0.000872665, 0.0, 0.0, 0.0, 0.000872665, 0.0, 0.0, 0.0, 0.000872665)",-1.93442733765,-0.382781760022,-0.637700262666,"(0.003, 0.0, 0.0, 0.0, 0.003, 0.0, 0.0, 0.0, 0.003)"
2022/03/09/18:20:07.563362,4297,1646846407,561902774,imu_iphone,0.0091200815825,-0.061238719809,-0.859698698574,0.507035295594,"(0.00872665, 0.0, 0.0, 0.0, 0.00872665, 0.0, 0.0, 0.0, 0.00872665)",-0.643451929092,-0.222940504551,-0.672952055931,"(0.000872665, 0.0, 0.0, 0.0, 0.000872665, 0.0, 0.0, 0.0, 0.000872665)",-1.8483022365,-0.665537540764,-0.632202125788,"(0.003, 0.0, 0.0, 0.0, 0.003, 0.0, 0.0, 0.0, 0.003)"
2022/03/09/18:20:07.587210,4298,1646846407,586570167,imu_iphone,-0.00273290156236,-0.062954103789,-0.864141470618,0.499288324342,"(0.00872665, 0.0, 0.0, 0.0, 0.00872665, 0.0, 0.0, 0.0, 0.00872665)",-0.62917637825,-0.266375154257,-0.739686250687,"(0.000872665, 0.0, 0.0, 0.0, 0.000872665, 0.0, 0.0, 0.0, 0.000872665)",-1.73932884783,-0.972892192304,-0.636543098688,"(0.003, 0.0, 0.0, 0.0, 0.003, 0.0, 0.0, 0.0, 0.003)"
2022/03/09/18:20:07.616036,4299,1646846407,615547977,imu_iphone,-0.0148912270028,-0.06350851584,-0.869109149226,0.490300118811,"(0.00872665, 0.0, 0.0, 0.0, 0.00872665, 0.0, 0.0, 0.0, 0.00872665)",-0.601501882076,-0.30729085207,-0.814892172813,"(0.000872665, 0.0, 0.0, 0.0, 0.000872665, 0.0, 0.0, 0.0, 0.000872665)",-1.61673641682,-1.27156138971,-0.633441150784,"(0.003, 0.0, 0.0, 0.0, 0.003, 0.0, 0.0, 0.0, 0.003)"
2022/03/09/18:20:07.651074,4300,1646846407,650693559,imu_iphone,-0.0271423249171,-0.0626990981687,-0.874663650236,0.479891254601,"(0.00872665, 0.0, 0.0, 0.0, 0.00872665, 0.0, 0.0, 0.0, 0.00872665)",-0.563211619854,-0.347104489803,-0.894502401352,"(0.000872665, 0.0, 0.0, 0.0, 0.000872665, 0.0, 0.0, 0.0, 0.000872665)",-1.48189085305,-1.57794394165,-0.617739622593,"(0.003, 0.0, 0.0, 0.0, 0.003, 0.0, 0.0, 0.0, 0.003)"
2022/03/09/18:20:07.684781,4301,1646846407,681600394,imu_iphone,-0.0392504176027,-0.0603340331618,-0.880805548183,0.467975208158,"(0.00872665, 0.0, 0.0, 0.0, 0.00872665, 0.0, 0.0, 0.0, 0.00872665)",-0.509138703346,-0.384030163288,-0.979850947857,"(0.000872665, 0.0, 0.0, 0.0, 0.000872665, 0.0, 0.0, 0.0, 0.000872665)",-1.31605533868,-1.85826910794,-0.600559333563,"(0.003, 0.0, 0.0, 0.0, 0.003, 0.0, 0.0, 0.0, 0.003)"
2022/03/09/18:20:07.706174,4302,1646846407,705261688,imu_iphone,-0.0509103122691,-0.0562580434507,-0.887576864392,0.454368223413,"(0.00872665, 0.0, 0.0, 0.0, 0.00872665, 0.0, 0.0, 0.0, 0.00872665)",-0.441135793924,-0.416208744049,-1.07010853291,"(0.000872665, 0.0, 0.0, 0.0, 0.000872665, 0.0, 0.0, 0.0, 0.000872665)",-1.10049758747,-2.12216374442,-0.574439236522,"(0.003, 0.0, 0.0, 0.0, 0.003, 0.0, 0.0, 0.0, 0.003)"
2022/03/09/18:20:07.739737,4303,1646846407,738248631,imu_iphone,-0.0617778201268,-0.0504615268395,-0.894883859371,0.439112757144,"(0.00872665, 0.0, 0.0, 0.0, 0.00872665, 0.0, 0.0, 0.0, 0.00872665)",-0.36474943161,-0.439152449369,-1.15665507317,"(0.000872665, 0.0, 0.0, 0.0, 0.000872665, 0.0, 0.0, 0.0, 0.000872665)",-0.860441391394,-2.33327614993,-0.543069509268,"(0.003, 0.0, 0.0, 0.0, 0.003, 0.0, 0.0, 0.0, 0.003)"
2022/03/09/18:20:07.772655,4304,1646846407,770912088,imu_iphone,-0.0714792431168,-0.0429666128986,-0.902603343174,0.42231717094,"(0.00872665, 0.0, 0.0, 0.0, 0.00872665, 0.0, 0.0, 0.0, 0.00872665)",-0.281987935305,-0.453445404768,-1.22893798351,"(0.000872665, 0.0, 0.0, 0.0, 0.000872665, 0.0, 0.0, 0.0, 0.000872665)",-0.587461643592,-2.52117788672,-0.507094514966,"(0.003, 0.0, 0.0, 0.0, 0.003, 0.0, 0.0, 0.0, 0.003)"
2022/03/09/18:20:07.796689,4305,1646846407,794933124,imu_iphone,-0.0796943273174,-0.0339034025647,-0.91054506894,0.404236380002,"(0.00872665, 0.0, 0.0, 0.0, 0.00872665, 0.0, 0.0, 0.0, 0.00872665)",-0.193338081241,-0.464679062366,-1.28484404087,"(0.000872665, 0.0, 0.0, 0.0, 0.000872665, 0.0, 0.0, 0.0, 0.000872665)",-0.313259973899,-2.63386659622,-0.480669193268,"(0.003, 0.0, 0.0, 0.0, 0.003, 0.0, 0.0, 0.0, 0.003)"
2022/03/09/18:20:07.827597,4306,1646846407,824320123,imu_iphone,-0.0861091542273,-0.0235661638691,-0.918484742032,0.385247489456,"(0.00872665, 0.0, 0.0, 0.0, 0.00872665, 0.0, 0.0, 0.0, 0.00872665)",-0.10109423846,-0.460529983044,-1.31920146942,"(0.000872665, 0.0, 0.0, 0.0, 0.000872665, 0.0, 0.0, 0.0, 0.000872665)",-0.0480475942791,-2.67650361568,-0.448716498613,"(0.003, 0.0, 0.0, 0.0, 0.003, 0.0, 0.0, 0.0, 0.003)"
2022/03/09/18:20:07.856298,4307,1646846407,853500273,imu_iphone,-0.0905410162604,-0.0123229103178,-0.92617554024,0.365854259122,"(0.00872665, 0.0, 0.0, 0.0, 0.00872665, 0.0, 0.0, 0.0, 0.00872665)",-0.0137332351878,-0.453718692064,-1.32173073292,"(0.000872665, 0.0, 0.0, 0.0, 0.000872665, 0.0, 0.0, 0.0, 0.000872665)",0.210729412884,-2.66688728482,-0.450621521473,"(0.003, 0.0, 0.0, 0.0, 0.003, 0.0, 0.0, 0.0, 0.003)"
2022/03/09/18:20:07.890635,4308,1646846407,890141059,imu_iphone,-0.0929111049181,-0.0005524422875,-0.933394523217,0.346614894976,"(0.00872665, 0.0, 0.0, 0.0, 0.00872665, 0.0, 0.0, 0.0, 0.00872665)",0.0681908354163,-0.443374574184,-1.29411530495,"(0.000872665, 0.0, 0.0, 0.0, 0.000872665, 0.0, 0.0, 0.0, 0.000872665)",0.448093404695,-2.61761075199,-0.445850193501,"(0.003, 0.0, 0.0, 0.0, 0.003, 0.0, 0.0, 0.0, 0.003)"
2022/03/09/18:20:07.915285,4309,1646846407,913710612,imu_iphone,-0.0932762804828,0.0113177667893,-0.939945441811,0.328137181789,"(0.00872665, 0.0, 0.0, 0.0, 0.00872665, 0.0, 0.0, 0.0, 0.00872665)",0.145414292812,-0.421637505293,-1.23113536835,"(0.000872665, 0.0, 0.0, 0.0, 0.000872665, 0.0, 0.0, 0.0, 0.000872665)",0.687988436893,-2.51865072012,-0.444601812959,"(0.003, 0.0, 0.0, 0.0, 0.003, 0.0, 0.0, 0.0, 0.003)"
2022/03/09/18:20:07.943966,4310,1646846407,943400691,imu_iphone,-0.0918181844123,0.022849889289,-0.945668139975,0.311061203958,"(0.00872665, 0.0, 0.0, 0.0, 0.00872665, 0.0, 0.0, 0.0, 0.00872665)",0.211005866528,-0.400227755308,-1.12867474556,"(0.000872665, 0.0, 0.0, 0.0, 0.000872665, 0.0, 0.0, 0.0, 0.000872665)",0.88253663063,-2.37261212379,-0.456917218566,"(0.003, 0.0, 0.0, 0.0, 0.003, 0.0, 0.0, 0.0, 0.003)"
2022/03/09/18:20:07.973035,4311,1646846407,972657093,imu_iphone,-0.0888370895784,0.0337008239557,-0.950450352474,0.296000597064,"(0.00872665, 0.0, 0.0, 0.0, 0.00872665, 0.0, 0.0, 0.0, 0.00872665)",0.272264808416,-0.378166437149,-0.99103564024,"(0.000872665, 0.0, 0.0, 0.0, 0.000872665, 0.0, 0.0, 0.0, 0.000872665)",1.07820887849,-2.22715883374,-0.450007563829,"(0.003, 0.0, 0.0, 0.0, 0.003, 0.0, 0.0, 0.0, 0.003)"
2022/03/09/18:20:08.009483,4312,1646846408,9035445,imu_iphone,-0.0846577192708,0.0436051166614,-0.954246117779,0.283453719455,"(0.00872665, 0.0, 0.0, 0.0, 0.00872665, 0.0, 0.0, 0.0, 0.00872665)",0.323757857084,-0.35229408741,-0.825058579445,"(0.000872665, 0.0, 0.0, 0.0, 0.000872665, 0.0, 0.0, 0.0, 0.000872665)",1.26220233634,-2.05410551637,-0.468616327643,"(0.003, 0.0, 0.0, 0.0, 0.003, 0.0, 0.0, 0.0, 0.003)"
2022/03/09/18:20:08.033478,4313,1646846408,33020192,imu_iphone,-0.0796816934402,0.0524477050782,-0.957050190651,0.273779105369,"(0.00872665, 0.0, 0.0, 0.0, 0.00872665, 0.0, 0.0, 0.0, 0.00872665)",0.364249050617,-0.328228056431,-0.631670296192,"(0.000872665, 0.0, 0.0, 0.0, 0.000872665, 0.0, 0.0, 0.0, 0.000872665)",1.42361896366,-1.89586816639,-0.484654070735,"(0.003, 0.0, 0.0, 0.0, 0.003, 0.0, 0.0, 0.0, 0.003)"
2022/03/09/18:20:08.063357,4314,1646846408,62926263,imu_iphone,-0.0742473316274,0.0601525917428,-0.958870906517,0.267274361075,"(0.00872665, 0.0, 0.0, 0.0, 0.00872665, 0.0, 0.0, 0.0, 0.00872665)",0.401252567768,-0.299279600382,-0.423987239599,"(0.000872665, 0.0, 0.0, 0.0, 0.000872665, 0.0, 0.0, 0.0, 0.000872665)",1.56964952007,-1.7232495895,-0.495891249776,"(0.003, 0.0, 0.0, 0.0, 0.003, 0.0, 0.0, 0.0, 0.003)"
2022/03/09/18:20:08.095493,4315,1646846408,93572676,imu_iphone,-0.0686327404172,0.0666989408025,-0.959756188306,0.264024349724,"(0.00872665, 0.0, 0.0, 0.0, 0.00872665, 0.0, 0.0, 0.0, 0.00872665)",0.433126717806,-0.263412863016,-0.211598917842,"(0.000872665, 0.0, 0.0, 0.0, 0.000872665, 0.0, 0.0, 0.0, 0.000872665)",1.71403379291,-1.56882988662,-0.497492802143,"(0.003, 0.0, 0.0, 0.0, 0.003, 0.0, 0.0, 0.0, 0.003)"
2022/03/09/18:20:08.128720,4316,1646846408,128360022,imu_iphone,-0.0630405732722,0.0722019857371,-0.959757709293,0.263965715253,"(0.00872665, 0.0, 0.0, 0.0, 0.00872665, 0.0, 0.0, 0.0, 0.00872665)",0.460973024368,-0.235041797161,-0.00639233924448,"(0.000872665, 0.0, 0.0, 0.0, 0.000872665, 0.0, 0.0, 0.0, 0.000872665)",1.82738937736,-1.41564599276,-0.519447927475,"(0.003, 0.0, 0.0, 0.0, 0.003, 0.0, 0.0, 0.0, 0.003)"
2022/03/09/18:20:08.155526,4317,1646846408,152183383,imu_iphone,-0.0575896559774,0.0767798100011,-0.958937846307,0.266882931678,"(0.00872665, 0.0, 0.0, 0.0, 0.00872665, 0.0, 0.0, 0.0, 0.00872665)",0.488933056593,-0.194740101695,0.181947395205,"(0.000872665, 0.0, 0.0, 0.0, 0.000872665, 0.0, 0.0, 0.0, 0.000872665)",1.93277813047,-1.27020176589,-0.530406779051,"(0.003, 0.0, 0.0, 0.0, 0.003, 0.0, 0.0, 0.0, 0.003)"
2022/03/09/18:20:08.184190,4318,1646846408,181621037,imu_iphone,-0.0522764064362,0.0805216739479,-0.957366095989,0.272458429133,"(0.00872665, 0.0, 0.0, 0.0, 0.00872665, 0.0, 0.0, 0.0, 0.00872665)",0.515078961849,-0.155033752322,0.346539914608,"(0.000872665, 0.0, 0.0, 0.0, 0.000872665, 0.0, 0.0, 0.0, 0.000872665)",2.00912946448,-1.12420585424,-0.542926252484,"(0.003, 0.0, 0.0, 0.0, 0.003, 0.0, 0.0, 0.0, 0.003)"
2022/03/09/18:20:08.212587,4319,1646846408,211270015,imu_iphone,-0.0470283035469,0.0836200025007,-0.955168066838,0.280089267806,"(0.00872665, 0.0, 0.0, 0.0, 0.00872665, 0.0, 0.0, 0.0, 0.00872665)",0.540043056011,-0.116162970662,0.482024818659,"(0.000872665, 0.0, 0.0, 0.0, 0.000872665, 0.0, 0.0, 0.0, 0.000872665)",2.04959292769,-0.984339140207,-0.56139000535,"(0.003, 0.0, 0.0, 0.0, 0.003, 0.0, 0.0, 0.0, 0.003)"
2022/03/09/18:20:08.248954,4320,1646846408,248481799,imu_iphone,-0.0418328899768,0.0861224208312,-0.952319570674,0.289690133172,"(0.00872665, 0.0, 0.0, 0.0, 0.00872665, 0.0, 0.0, 0.0, 0.00872665)",0.568676531315,-0.0741001665592,0.59617292881,"(0.000872665, 0.0, 0.0, 0.0, 0.000872665, 0.0, 0.0, 0.0, 0.000872665)",2.11531343892,-0.821282076538,-0.565755536556,"(0.003, 0.0, 0.0, 0.0, 0.003, 0.0, 0.0, 0.0, 0.003)"
2022/03/09/18:20:08.271702,4321,1646846408,271311686,imu_iphone,-0.0365895948034,0.0881539071134,-0.948897131999,0.300806122106,"(0.00872665, 0.0, 0.0, 0.0, 0.00872665, 0.0, 0.0, 0.0, 0.00872665)",0.591014742851,-0.0278002358973,0.686001300812,"(0.000872665, 0.0, 0.0, 0.0, 0.000872665, 0.0, 0.0, 0.0, 0.000872665)",2.16175480306,-0.659996865392,-0.579602327943,"(0.003, 0.0, 0.0, 0.0, 0.003, 0.0, 0.0, 0.0, 0.003)"
2022/03/09/18:20:08.301057,4322,1646846408,300740334,imu_iphone,-0.0312395378508,0.0898162623512,-0.944970729111,0.313029473718,"(0.00872665, 0.0, 0.0, 0.0, 0.00872665, 0.0, 0.0, 0.0, 0.00872665)",0.616058707237,0.0130463382229,0.75491309166,"(0.000872665, 0.0, 0.0, 0.0, 0.000872665, 0.0, 0.0, 0.0, 0.000872665)",2.15780910194,-0.493703952581,-0.599842464924,"(0.003, 0.0, 0.0, 0.0, 0.003, 0.0, 0.0, 0.0, 0.003)"
2022/03/09/18:20:08.331728,4323,1646846408,330827874,imu_iphone,-0.0257456311908,0.0912026845621,-0.940544533895,0.326182790109,"(0.00872665, 0.0, 0.0, 0.0, 0.00872665, 0.0, 0.0, 0.0, 0.00872665)",0.633706510067,0.0569870918989,0.815073370934,"(0.000872665, 0.0, 0.0, 0.0, 0.000872665, 0.0, 0.0, 0.0, 0.000872665)",2.13891616344,-0.305615927149,-0.635297641754,"(0.003, 0.0, 0.0, 0.0, 0.003, 0.0, 0.0, 0.0, 0.003)"
2022/03/09/18:20:08.364691,4324,1646846408,361782616,imu_iphone,-0.0201467244163,0.0924028719925,-0.935647448167,0.340028927418,"(0.00872665, 0.0, 0.0, 0.0, 0.00872665, 0.0, 0.0, 0.0, 0.00872665)",0.645925104618,0.0928939580917,0.866065442562,"(0.000872665, 0.0, 0.0, 0.0, 0.000872665, 0.0, 0.0, 0.0, 0.000872665)",2.08215972617,-0.10306187192,-0.648351550698,"(0.003, 0.0, 0.0, 0.0, 0.003, 0.0, 0.0, 0.0, 0.003)"
2022/03/09/18:20:08.394752,4325,1646846408,392957424,imu_iphone,-0.0144678333495,0.0935251819699,-0.930295320965,0.354392914611,"(0.00872665, 0.0, 0.0, 0.0, 0.00872665, 0.0, 0.0, 0.0, 0.00872665)",0.659624934196,0.126972988248,0.902507245541,"(0.000872665, 0.0, 0.0, 0.0, 0.000872665, 0.0, 0.0, 0.0, 0.000872665)",2.01347789258,0.131005441435,-0.666700698137,"(0.003, 0.0, 0.0, 0.0, 0.003, 0.0, 0.0, 0.0, 0.003)"
2022/03/09/18:20:08.421632,4326,1646846408,420302257,imu_iphone,-0.00879566539794,0.0945733518683,-0.92447872197,0.369212147703,"(0.00872665, 0.0, 0.0, 0.0, 0.00872665, 0.0, 0.0, 0.0, 0.00872665)",0.6562692523,0.158325061202,0.945589363575,"(0.000872665, 0.0, 0.0, 0.0, 0.000872665, 0.0, 0.0, 0.0, 0.000872665)",1.97595309377,0.343223993964,-0.675763882399,"(0.003, 0.0, 0.0, 0.0, 0.003, 0.0, 0.0, 0.0, 0.003)"
2022/03/09/18:20:08.450085,4327,1646846408,449691720,imu_iphone,-0.00320988071754,0.0955911556271,-0.91820283517,0.384389881654,"(0.00872665, 0.0, 0.0, 0.0, 0.00872665, 0.0, 0.0, 0.0, 0.00872665)",0.652345359325,0.187433794141,0.983332753181,"(0.000872665, 0.0, 0.0, 0.0, 0.000872665, 0.0, 0.0, 0.0, 0.000872665)",1.93490344718,0.54903249979,-0.681239799857,"(0.003, 0.0, 0.0, 0.0, 0.003, 0.0, 0.0, 0.0, 0.003)"
2022/03/09/18:20:08.482506,4328,1646846408,481037008,imu_iphone,0.00220163727587,0.0965912742937,-0.911455706785,0.39989220184,"(0.00872665, 0.0, 0.0, 0.0, 0.00872665, 0.0, 0.0, 0.0, 0.00872665)",0.641070485115,0.217210441828,1.02574777603,"(0.000872665, 0.0, 0.0, 0.0, 0.000872665, 0.0, 0.0, 0.0, 0.000872665)",1.89520933136,0.763235158771,-0.68176020205,"(0.003, 0.0, 0.0, 0.0, 0.003, 0.0, 0.0, 0.0, 0.003)"
2022/03/09/18:20:08.511145,4329,1646846408,509621306,imu_iphone,0.00739246299337,0.0974904668253,-0.904286093208,0.415581065497,"(0.00872665, 0.0, 0.0, 0.0, 0.00872665, 0.0, 0.0, 0.0, 0.00872665)",0.620401144028,0.247729942203,1.04645907879,"(0.000872665, 0.0, 0.0, 0.0, 0.000872665, 0.0, 0.0, 0.0, 0.000872665)",1.81894760594,1.02321303785,-0.6538286376,"(0.003, 0.0, 0.0, 0.0, 0.003, 0.0, 0.0, 0.0, 0.003)"
2022/03/09/18:20:08.539713,4330,1646846408,539196414,imu_iphone,0.0122596812808,0.0983316295923,-0.896676736761,0.431452686385,"(0.00872665, 0.0, 0.0, 0.0, 0.00872665, 0.0, 0.0, 0.0, 0.00872665)",0.590837538242,0.272498220205,1.07990098,"(0.000872665, 0.0, 0.0, 0.0, 0.000872665, 0.0, 0.0, 0.0, 0.000872665)",1.78047760472,1.17560346454,-0.649805753231,"(0.003, 0.0, 0.0, 0.0, 0.003, 0.0, 0.0, 0.0, 0.003)"
2022/03/09/18:20:08.571110,4331,1646846408,570492944,imu_iphone,0.0167734735403,0.0990888512194,-0.888696493788,0.447346165824,"(0.00872665, 0.0, 0.0, 0.0, 0.00872665, 0.0, 0.0, 0.0, 0.00872665)",0.565898060799,0.294638693333,1.10221028328,"(0.000872665, 0.0, 0.0, 0.0, 0.000872665, 0.0, 0.0, 0.0, 0.000872665)",1.66763409019,1.37726413831,-0.624624134302,"(0.003, 0.0, 0.0, 0.0, 0.003, 0.0, 0.0, 0.0, 0.003)"
2022/03/09/18:20:08.603125,4332,1646846408,601177446,imu_iphone,0.020855809108,0.0998087524541,-0.880334442664,0.463265061513,"(0.00872665, 0.0, 0.0, 0.0, 0.00872665, 0.0, 0.0, 0.0, 0.00872665)",0.530098557472,0.310539364815,1.11445391178,"(0.000872665, 0.0, 0.0, 0.0, 0.000872665, 0.0, 0.0, 0.0, 0.000872665)",1.57296825349,1.52173319578,-0.612634418607,"(0.003, 0.0, 0.0, 0.0, 0.003, 0.0, 0.0, 0.0, 0.003)"
2022/03/09/18:20:08.629363,4333,1646846408,628951954,imu_iphone,0.0245419203017,0.100455183009,-0.871712795555,0.478981473984,"(0.00872665, 0.0, 0.0, 0.0, 0.00872665, 0.0, 0.0, 0.0, 0.00872665)",0.49528169632,0.324392318726,1.11592268944,"(0.000872665, 0.0, 0.0, 0.0, 0.000872665, 0.0, 0.0, 0.0, 0.000872665)",1.4642477569,1.65088240206,-0.579687697291,"(0.003, 0.0, 0.0, 0.0, 0.003, 0.0, 0.0, 0.0, 0.003)"
2022/03/09/18:20:08.658825,4334,1646846408,658374512,imu_iphone,0.0278612904002,0.101019877722,-0.862984392132,0.494243534847,"(0.00872665, 0.0, 0.0, 0.0, 0.00872665, 0.0, 0.0, 0.0, 0.00872665)",0.455311685801,0.331485450268,1.08867716789,"(0.000872665, 0.0, 0.0, 0.0, 0.000872665, 0.0, 0.0, 0.0, 0.000872665)",1.33159650698,1.7851414901,-0.568717736006,"(0.003, 0.0, 0.0, 0.0, 0.003, 0.0, 0.0, 0.0, 0.003)"
2022/03/09/18:20:08.691346,4335,1646846408,690416704,imu_iphone,0.0308798250723,0.101451690111,-0.854311811812,0.508827396251,"(0.00872665, 0.0, 0.0, 0.0, 0.00872665, 0.0, 0.0, 0.0, 0.00872665)",0.413188546896,0.334806621075,1.05122244358,"(0.000872665, 0.0, 0.0, 0.0, 0.000872665, 0.0, 0.0, 0.0, 0.000872665)",1.2125859341,1.89085695639,-0.523466718793,"(0.003, 0.0, 0.0, 0.0, 0.003, 0.0, 0.0, 0.0, 0.003)"
2022/03/09/18:20:08.721086,4336,1646846408,720345377,imu_iphone,0.0336408101522,0.101738418263,-0.845902828089,0.522461477597,"(0.00872665, 0.0, 0.0, 0.0, 0.00872665, 0.0, 0.0, 0.0, 0.00872665)",0.372645825148,0.33882945776,0.985693216324,"(0.000872665, 0.0, 0.0, 0.0, 0.000872665, 0.0, 0.0, 0.0, 0.000872665)",1.09683416069,1.95522632226,-0.497418542504,"(0.003, 0.0, 0.0, 0.0, 0.003, 0.0, 0.0, 0.0, 0.003)"
2022/03/09/18:20:08.748471,4337,1646846408,748010538,imu_iphone,0.0362679842121,0.101829696906,-0.837960827148,0.534917749111,"(0.00872665, 0.0, 0.0, 0.0, 0.00872665, 0.0, 0.0, 0.0, 0.00872665)",0.333254039288,0.335059821606,0.897025406361,"(0.000872665, 0.0, 0.0, 0.0, 0.000872665, 0.0, 0.0, 0.0, 0.000872665)",0.981273883581,2.02064584807,-0.479382221103,"(0.003, 0.0, 0.0, 0.0, 0.003, 0.0, 0.0, 0.0, 0.003)"
2022/03/09/18:20:08.778579,4338,1646846408,777981778,imu_iphone,0.0388765400157,0.101654006058,-0.830725484248,0.545939783776,"(0.00872665, 0.0, 0.0, 0.0, 0.00872665, 0.0, 0.0, 0.0, 0.00872665)",0.292355716228,0.337458968163,0.78888875246,"(0.000872665, 0.0, 0.0, 0.0, 0.000872665, 0.0, 0.0, 0.0, 0.000872665)",0.887904374599,2.07456009999,-0.447350004315,"(0.003, 0.0, 0.0, 0.0, 0.003, 0.0, 0.0, 0.0, 0.003)"
2022/03/09/18:20:08.809691,4339,1646846408,809002336,imu_iphone,0.0415841627266,0.101120390429,-0.824442158725,0.555284207381,"(0.00872665, 0.0, 0.0, 0.0, 0.00872665, 0.0, 0.0, 0.0, 0.00872665)",0.256089806557,0.336169034243,0.659692287445,"(0.000872665, 0.0, 0.0, 0.0, 0.000872665, 0.0, 0.0, 0.0, 0.000872665)",0.805565784127,2.11052120715,-0.428844736218,"(0.003, 0.0, 0.0, 0.0, 0.003, 0.0, 0.0, 0.0, 0.003)"
2022/03/09/18:20:08.841804,4340,1646846408,841377949,imu_iphone,0.0445223264562,0.10011588434,-0.819323933788,0.562763594835,"(0.00872665, 0.0, 0.0, 0.0, 0.00872665, 0.0, 0.0, 0.0, 0.00872665)",0.216747179627,0.339681327343,0.515389323235,"(0.000872665, 0.0, 0.0, 0.0, 0.000872665, 0.0, 0.0, 0.0, 0.000872665)",0.73203807056,2.14639738351,-0.419813126922,"(0.003, 0.0, 0.0, 0.0, 0.003, 0.0, 0.0, 0.0, 0.003)"
2022/03/09/18:20:08.868650,4341,1646846408,867245048,imu_iphone,0.0477733346578,0.0985667356668,-0.815533432481,0.568249529363,"(0.00872665, 0.0, 0.0, 0.0, 0.00872665, 0.0, 0.0, 0.0, 0.00872665)",0.176524832845,0.343370229006,0.358557343483,"(0.000872665, 0.0, 0.0, 0.0, 0.000872665, 0.0, 0.0, 0.0, 0.000872665)",0.669095644578,2.18187331796,-0.418164212108,"(0.003, 0.0, 0.0, 0.0, 0.003, 0.0, 0.0, 0.0, 0.003)"
2022/03/09/18:20:08.898806,4342,1646846408,896894982,imu_iphone,0.0513749810235,0.0963114988472,-0.813197031385,0.571660121629,"(0.00872665, 0.0, 0.0, 0.0, 0.00872665, 0.0, 0.0, 0.0, 0.00872665)",0.140125870705,0.35738748312,0.20214702189,"(0.000872665, 0.0, 0.0, 0.0, 0.000872665, 0.0, 0.0, 0.0, 0.000872665)",0.597875534669,2.20527577534,-0.401878547072,"(0.003, 0.0, 0.0, 0.0, 0.003, 0.0, 0.0, 0.0, 0.003)"
2022/03/09/18:20:08.929326,4343,1646846408,928900773,imu_iphone,0.0553119527807,0.0932418654671,-0.812331660011,0.573030380126,"(0.00872665, 0.0, 0.0, 0.0, 0.00872665, 0.0, 0.0, 0.0, 0.00872665)",0.0941221117973,0.368881255388,0.0467313975096,"(0.000872665, 0.0, 0.0, 0.0, 0.000872665, 0.0, 0.0, 0.0, 0.000872665)",0.535053268969,2.23313293397,-0.381189343929,"(0.003, 0.0, 0.0, 0.0, 0.003, 0.0, 0.0, 0.0, 0.003)"
2022/03/09/18:20:08.963907,4344,1646846408,961969227,imu_iphone,0.0595030838544,0.0892319990553,-0.812880587024,0.572470247782,"(0.00872665, 0.0, 0.0, 0.0, 0.00872665, 0.0, 0.0, 0.0, 0.00872665)",0.048360966146,0.389745205641,-0.0909650251269,"(0.000872665, 0.0, 0.0, 0.0, 0.000872665, 0.0, 0.0, 0.0, 0.000872665)",0.465156676322,2.26738212258,-0.37986728847,"(0.003, 0.0, 0.0, 0.0, 0.003, 0.0, 0.0, 0.0, 0.003)"
2022/03/09/18:20:08.987120,4345,1646846408,986522376,imu_iphone,0.0637796658589,0.0842310307748,-0.81466377951,0.570228212237,"(0.00872665, 0.0, 0.0, 0.0, 0.00872665, 0.0, 0.0, 0.0, 0.00872665)",0.000837694853544,0.404825329781,-0.206848815084,"(0.000872665, 0.0, 0.0, 0.0, 0.000872665, 0.0, 0.0, 0.0, 0.000872665)",0.398949969113,2.28662589401,-0.369149926901,"(0.003, 0.0, 0.0, 0.0, 0.003, 0.0, 0.0, 0.0, 0.003)"
2022/03/09/18:20:09.016147,4346,1646846409,15718784,imu_iphone,0.0679517977585,0.0782046602646,-0.817452895665,0.566601577534,"(0.00872665, 0.0, 0.0, 0.0, 0.00872665, 0.0, 0.0, 0.0, 0.00872665)",-0.0520213469863,0.426519066095,-0.297210395336,"(0.000872665, 0.0, 0.0, 0.0, 0.000872665, 0.0, 0.0, 0.0, 0.000872665)",0.284223797321,2.29512058273,-0.378839347959,"(0.003, 0.0, 0.0, 0.0, 0.003, 0.0, 0.0, 0.0, 0.003)"
2022/03/09/18:20:09.052830,4347,1646846409,49176474,imu_iphone,0.0717688647605,0.07115250728,-0.820948995156,0.561986919875,"(0.00872665, 0.0, 0.0, 0.0, 0.00872665, 0.0, 0.0, 0.0, 0.00872665)",-0.108404710889,0.446427851915,-0.356405675411,"(0.000872665, 0.0, 0.0, 0.0, 0.000872665, 0.0, 0.0, 0.0, 0.000872665)",0.144703896269,2.27956772,-0.377469345331,"(0.003, 0.0, 0.0, 0.0, 0.003, 0.0, 0.0, 0.0, 0.003)"
2022/03/09/18:20:09.083103,4348,1646846409,81492189,imu_iphone,0.0750026559297,0.0632121548399,-0.824876702145,0.556738045532,"(0.00872665, 0.0, 0.0, 0.0, 0.00872665, 0.0, 0.0, 0.0, 0.00872665)",-0.165328487754,0.460851669312,-0.393688410521,"(0.000872665, 0.0, 0.0, 0.0, 0.000872665, 0.0, 0.0, 0.0, 0.000872665)",-0.0158327250928,2.26253273427,-0.392643454671,"(0.003, 0.0, 0.0, 0.0, 0.003, 0.0, 0.0, 0.0, 0.003)"
2022/03/09/18:20:09.107263,4349,1646846409,105427869,imu_iphone,0.0774766291893,0.0544839191852,-0.828990825096,0.551183350969,"(0.00872665, 0.0, 0.0, 0.0, 0.00872665, 0.0, 0.0, 0.0, 0.00872665)",-0.226070731878,0.467851281166,-0.407709240913,"(0.000872665, 0.0, 0.0, 0.0, 0.000872665, 0.0, 0.0, 0.0, 0.000872665)",-0.20465393655,2.20694880992,-0.414766979814,"(0.003, 0.0, 0.0, 0.0, 0.003, 0.0, 0.0, 0.0, 0.003)"
2022/03/09/18:20:09.138805,4350,1646846409,135015382,imu_iphone,0.0790177858572,0.0451650969276,-0.833073038876,0.545624060536,"(0.00872665, 0.0, 0.0, 0.0, 0.00872665, 0.0, 0.0, 0.0, 0.00872665)",-0.288478314877,0.463291436434,-0.405826807022,"(0.000872665, 0.0, 0.0, 0.0, 0.000872665, 0.0, 0.0, 0.0, 0.000872665)",-0.436545190327,2.13039691642,-0.424930025339,"(0.003, 0.0, 0.0, 0.0, 0.003, 0.0, 0.0, 0.0, 0.003)"
2022/03/09/18:20:09.170959,4351,1646846409,170582511,imu_iphone,0.0794795675328,0.0354426683961,-0.836987448617,0.540258110961,"(0.00872665, 0.0, 0.0, 0.0, 0.00872665, 0.0, 0.0, 0.0, 0.00872665)",-0.347023844719,0.450011342764,-0.398842334747,"(0.000872665, 0.0, 0.0, 0.0, 0.000872665, 0.0, 0.0, 0.0, 0.000872665)",-0.682267740369,2.01842419848,-0.474308592081,"(0.003, 0.0, 0.0, 0.0, 0.003, 0.0, 0.0, 0.0, 0.003)"
2022/03/09/18:20:09.197460,4352,1646846409,194867527,imu_iphone,0.0788219538496,0.0255535572031,-0.840637292988,0.535222436884,"(0.00872665, 0.0, 0.0, 0.0, 0.00872665, 0.0, 0.0, 0.0, 0.00872665)",-0.404813557863,0.43220487237,-0.383318454027,"(0.000872665, 0.0, 0.0, 0.0, 0.000872665, 0.0, 0.0, 0.0, 0.000872665)",-0.924774577618,1.87029566109,-0.479890928864,"(0.003, 0.0, 0.0, 0.0, 0.003, 0.0, 0.0, 0.0, 0.003)"
2022/03/09/18:20:09.228504,4353,1646846409,226368814,imu_iphone,0.0770365238658,0.0156743162086,-0.844017883127,0.530521915441,"(0.00872665, 0.0, 0.0, 0.0, 0.00872665, 0.0, 0.0, 0.0, 0.00872665)",-0.4549228549,0.39537063241,-0.381437599659,"(0.000872665, 0.0, 0.0, 0.0, 0.000872665, 0.0, 0.0, 0.0, 0.000872665)",-1.17952584989,1.69391717836,-0.494431200027,"(0.003, 0.0, 0.0, 0.0, 0.003, 0.0, 0.0, 0.0, 0.003)"
2022/03/09/18:20:09.254464,4354,1646846409,254067834,imu_iphone,0.0741649275368,0.00597641545905,-0.847182259219,0.526066598109,"(0.00872665, 0.0, 0.0, 0.0, 0.00872665, 0.0, 0.0, 0.0, 0.00872665)",-0.49297529459,0.352180451155,-0.38101324439,"(0.000872665, 0.0, 0.0, 0.0, 0.000872665, 0.0, 0.0, 0.0, 0.000872665)",-1.40845698729,1.48064568847,-0.527148710489,"(0.003, 0.0, 0.0, 0.0, 0.003, 0.0, 0.0, 0.0, 0.003)"
2022/03/09/18:20:09.289487,4355,1646846409,289063822,imu_iphone,0.0702546371297,-0.00339995045964,-0.850326163221,0.521534411559,"(0.00872665, 0.0, 0.0, 0.0, 0.00872665, 0.0, 0.0, 0.0, 0.00872665)",-0.529852986336,0.302658677101,-0.416981637478,"(0.000872665, 0.0, 0.0, 0.0, 0.000872665, 0.0, 0.0, 0.0, 0.000872665)",-1.65293024316,1.2733626245,-0.522480878234,"(0.003, 0.0, 0.0, 0.0, 0.003, 0.0, 0.0, 0.0, 0.003)"
2022/03/09/18:20:09.315357,4356,1646846409,314941840,imu_iphone,0.0653563695177,-0.0122693457492,-0.853488100412,0.51685207804,"(0.00872665, 0.0, 0.0, 0.0, 0.00872665, 0.0, 0.0, 0.0, 0.00872665)",-0.553255677223,0.243169665337,-0.444982528687,"(0.000872665, 0.0, 0.0, 0.0, 0.000872665, 0.0, 0.0, 0.0, 0.000872665)",-1.76245224684,0.960720628202,-0.542711074948,"(0.003, 0.0, 0.0, 0.0, 0.003, 0.0, 0.0, 0.0, 0.003)"
2022/03/09/18:20:09.346765,4357,1646846409,345106723,imu_iphone,0.0595434100832,-0.02045785321,-0.856711071812,0.51193964292,"(0.00872665, 0.0, 0.0, 0.0, 0.00872665, 0.0, 0.0, 0.0, 0.00872665)",-0.565214335918,0.182277783751,-0.485126078129,"(0.000872665, 0.0, 0.0, 0.0, 0.000872665, 0.0, 0.0, 0.0, 0.000872665)",-1.8768954134,0.707493871227,-0.529831997752,"(0.003, 0.0, 0.0, 0.0, 0.003, 0.0, 0.0, 0.0, 0.003)"
2022/03/09/18:20:09.374639,4358,1646846409,373216806,imu_iphone,0.0529021326074,-0.0278680733536,-0.860119795918,0.506575435176,"(0.00872665, 0.0, 0.0, 0.0, 0.00872665, 0.0, 0.0, 0.0, 0.00872665)",-0.568459391594,0.119102165103,-0.533257186413,"(0.000872665, 0.0, 0.0, 0.0, 0.000872665, 0.0, 0.0, 0.0, 0.000872665)",-1.9488535881,0.446323233247,-0.549449990988,"(0.003, 0.0, 0.0, 0.0, 0.003, 0.0, 0.0, 0.0, 0.003)"
2022/03/09/18:20:09.408602,4359,1646846409,407307825,imu_iphone,0.0455202784716,-0.034393384437,-0.863794858533,0.500603078024,"(0.00872665, 0.0, 0.0, 0.0, 0.00872665, 0.0, 0.0, 0.0, 0.00872665)",-0.566922068596,0.053757738322,-0.591296255589,"(0.000872665, 0.0, 0.0, 0.0, 0.000872665, 0.0, 0.0, 0.0, 0.000872665)",-1.96643353432,0.187566947155,-0.527299568653,"(0.003, 0.0, 0.0, 0.0, 0.003, 0.0, 0.0, 0.0, 0.003)"
2022/03/09/18:20:09.433644,4360,1646846409,433246941,imu_iphone,0.0374988410652,-0.0399681810568,-0.86778011254,0.493917055488,"(0.00872665, 0.0, 0.0, 0.0, 0.00872665, 0.0, 0.0, 0.0, 0.00872665)",-0.556739449501,-0.00499996449798,-0.643320679665,"(0.000872665, 0.0, 0.0, 0.0, 0.000872665, 0.0, 0.0, 0.0, 0.000872665)",-1.93782252342,-0.0404626409523,-0.530150671005,"(0.003, 0.0, 0.0, 0.0, 0.003, 0.0, 0.0, 0.0, 0.003)"
2022/03/09/18:20:09.463533,4361,1646846409,463135395,imu_iphone,0.0289181710883,-0.0445368882126,-0.872079232524,0.486475094091,"(0.00872665, 0.0, 0.0, 0.0, 0.00872665, 0.0, 0.0, 0.0, 0.00872665)",-0.546057999134,-0.0576333068311,-0.700928986073,"(0.000872665, 0.0, 0.0, 0.0, 0.000872665, 0.0, 0.0, 0.0, 0.000872665)",-1.88753296047,-0.256016536653,-0.527742202878,"(0.003, 0.0, 0.0, 0.0, 0.003, 0.0, 0.0, 0.0, 0.003)"
2022/03/09/18:20:09.493349,4362,1646846409,492998592,imu_iphone,0.0198731915188,-0.0480568793973,-0.876687515359,0.478241145256,"(0.00872665, 0.0, 0.0, 0.0, 0.00872665, 0.0, 0.0, 0.0, 0.00872665)",-0.530455827713,-0.109700098634,-0.749262690544,"(0.000872665, 0.0, 0.0, 0.0, 0.000872665, 0.0, 0.0, 0.0, 0.000872665)",-1.80119165853,-0.463255454153,-0.517245281339,"(0.003, 0.0, 0.0, 0.0, 0.003, 0.0, 0.0, 0.0, 0.003)"
2022/03/09/18:20:09.530089,4363,1646846409,527859123,imu_iphone,0.0104851968737,-0.0505019896906,-0.881537960838,0.4692871544,"(0.00872665, 0.0, 0.0, 0.0, 0.00872665, 0.0, 0.0, 0.0, 0.00872665)",-0.513565778732,-0.156528234482,-0.790013790131,"(0.000872665, 0.0, 0.0, 0.0, 0.000872665, 0.0, 0.0, 0.0, 0.000872665)",-1.71770876795,-0.635711916983,-0.513238184452,"(0.003, 0.0, 0.0, 0.0, 0.003, 0.0, 0.0, 0.0, 0.003)"
2022/03/09/18:20:09.553093,4364,1646846409,552463945,imu_iphone,0.000839239724274,-0.0518377315981,-0.886574553101,0.459671303273,"(0.00872665, 0.0, 0.0, 0.0, 0.00872665, 0.0, 0.0, 0.0, 0.00872665)",-0.494271218777,-0.203537449241,-0.818132162094,"(0.000872665, 0.0, 0.0, 0.0, 0.000872665, 0.0, 0.0, 0.0, 0.000872665)",-1.60486949265,-0.81680764094,-0.48533585608,"(0.003, 0.0, 0.0, 0.0, 0.003, 0.0, 0.0, 0.0, 0.003)"
2022/03/09/18:20:09.582755,4365,1646846409,582230727,imu_iphone,-0.00896126314395,-0.0520548250581,-0.891708283226,0.449517884603,"(0.00872665, 0.0, 0.0, 0.0, 0.00872665, 0.0, 0.0, 0.0, 0.00872665)",-0.475478321314,-0.242296665907,-0.837139248848,"(0.000872665, 0.0, 0.0, 0.0, 0.000872665, 0.0, 0.0, 0.0, 0.000872665)",-1.50198831797,-0.983067224622,-0.497668803334,"(0.003, 0.0, 0.0, 0.0, 0.003, 0.0, 0.0, 0.0, 0.003)"
2022/03/09/18:20:09.612801,4366,1646846409,612028500,imu_iphone,-0.0187997691711,-0.0511061719422,-0.896879732067,0.43890941443,"(0.00872665, 0.0, 0.0, 0.0, 0.00872665, 0.0, 0.0, 0.0, 0.00872665)",-0.456911295652,-0.281460940838,-0.844327092171,"(0.000872665, 0.0, 0.0, 0.0, 0.000872665, 0.0, 0.0, 0.0, 0.000872665)",-1.37643368751,-1.1659407945,-0.483144904375,"(0.003, 0.0, 0.0, 0.0, 0.003, 0.0, 0.0, 0.0, 0.003)"
2022/03/09/18:20:09.650659,4367,1646846409,648626115,imu_iphone,-0.0285482291725,-0.0490490973369,-0.90201992191,0.427947713089,"(0.00872665, 0.0, 0.0, 0.0, 0.00872665, 0.0, 0.0, 0.0, 0.00872665)",-0.428796321154,-0.320692569017,-0.846382677555,"(0.000872665, 0.0, 0.0, 0.0, 0.000872665, 0.0, 0.0, 0.0, 0.000872665)",-1.23593971342,-1.33470123231,-0.475585039258,"(0.003, 0.0, 0.0, 0.0, 0.003, 0.0, 0.0, 0.0, 0.003)"
2022/03/09/18:20:09.673891,4368,1646846409,671734876,imu_iphone,-0.0380098336435,-0.045911185839,-0.90706750551,0.41674447328,"(0.00872665, 0.0, 0.0, 0.0, 0.00872665, 0.0, 0.0, 0.0, 0.00872665)",-0.401997864246,-0.353745758533,-0.834808528423,"(0.000872665, 0.0, 0.0, 0.0, 0.000872665, 0.0, 0.0, 0.0, 0.000872665)",-1.06341973521,-1.50554985702,-0.471915326715,"(0.003, 0.0, 0.0, 0.0, 0.003, 0.0, 0.0, 0.0, 0.003)"
2022/03/09/18:20:09.701510,4369,1646846409,701113790,imu_iphone,-0.0470487048486,-0.0417489900759,-0.911971829551,0.405402051432,"(0.00872665, 0.0, 0.0, 0.0, 0.00872665, 0.0, 0.0, 0.0, 0.00872665)",-0.366175681353,-0.379485934973,-0.818491399288,"(0.000872665, 0.0, 0.0, 0.0, 0.000872665, 0.0, 0.0, 0.0, 0.000872665)",-0.893852308542,-1.68764092326,-0.457687296867,"(0.003, 0.0, 0.0, 0.0, 0.003, 0.0, 0.0, 0.0, 0.003)"
2022/03/09/18:20:09.735588,4370,1646846409,731162360,imu_iphone,-0.0554802493759,-0.0366653703291,-0.916683400179,0.394042049006,"(0.00872665, 0.0, 0.0, 0.0, 0.00872665, 0.0, 0.0, 0.0, 0.00872665)",-0.321119517088,-0.397123396397,-0.796412408352,"(0.000872665, 0.0, 0.0, 0.0, 0.000872665, 0.0, 0.0, 0.0, 0.000872665)",-0.655482084006,-1.86163856596,-0.453505368233,"(0.003, 0.0, 0.0, 0.0, 0.003, 0.0, 0.0, 0.0, 0.003)"
2022/03/09/18:20:09.764062,4371,1646846409,762062933,imu_iphone,-0.0630985232641,-0.0307994082089,-0.921181002173,0.382747350155,"(0.00872665, 0.0, 0.0, 0.0, 0.00872665, 0.0, 0.0, 0.0, 0.00872665)",-0.273931324482,-0.40924268961,-0.775150775909,"(0.000872665, 0.0, 0.0, 0.0, 0.000872665, 0.0, 0.0, 0.0, 0.000872665)",-0.452099478319,-2.01521700069,-0.413019247055,"(0.003, 0.0, 0.0, 0.0, 0.003, 0.0, 0.0, 0.0, 0.003)"
2022/03/09/18:20:09.791604,4372,1646846409,790877179,imu_iphone,-0.0697513667562,-0.024266705739,-0.925457280353,0.37158403635,"(0.00872665, 0.0, 0.0, 0.0, 0.00872665, 0.0, 0.0, 0.0, 0.00872665)",-0.222810864449,-0.411079138517,-0.749068319798,"(0.000872665, 0.0, 0.0, 0.0, 0.000872665, 0.0, 0.0, 0.0, 0.000872665)",-0.21201969238,-2.17420586407,-0.409081732035,"(0.003, 0.0, 0.0, 0.0, 0.003, 0.0, 0.0, 0.0, 0.003)"
2022/03/09/18:20:09.820603,4373,1646846409,820126216,imu_iphone,-0.0752957658843,-0.0172294494447,-0.929507168629,0.360624620873,"(0.00872665, 0.0, 0.0, 0.0, 0.00872665, 0.0, 0.0, 0.0, 0.00872665)",-0.158283904195,-0.405634045601,-0.720996260643,"(0.000872665, 0.0, 0.0, 0.0, 0.000872665, 0.0, 0.0, 0.0, 0.000872665)",-0.0151251389086,-2.28408030868,-0.376469471455,"(0.003, 0.0, 0.0, 0.0, 0.003, 0.0, 0.0, 0.0, 0.003)"
2022/03/09/18:20:09.851621,4374,1646846409,850328178,imu_iphone,-0.0796054714502,-0.00983358331667,-0.933323817509,0.349961313897,"(0.00872665, 0.0, 0.0, 0.0, 0.00872665, 0.0, 0.0, 0.0, 0.00872665)",-0.0903556570411,-0.399823457003,-0.695732533932,"(0.000872665, 0.0, 0.0, 0.0, 0.000872665, 0.0, 0.0, 0.0, 0.000872665)",0.178060982488,-2.36843808889,-0.357798142433,"(0.003, 0.0, 0.0, 0.0, 0.003, 0.0, 0.0, 0.0, 0.003)"
2022/03/09/18:20:09.883158,4375,1646846409,881462737,imu_iphone,-0.0826164717853,-0.00220698760794,-0.936882761969,0.339735688619,"(0.00872665, 0.0, 0.0, 0.0, 0.00872665, 0.0, 0.0, 0.0, 0.00872665)",-0.0239311903715,-0.384944021702,-0.663231372833,"(0.000872665, 0.0, 0.0, 0.0, 0.000872665, 0.0, 0.0, 0.0, 0.000872665)",0.35309749268,-2.41156203523,-0.341779695153,"(0.003, 0.0, 0.0, 0.0, 0.003, 0.0, 0.0, 0.0, 0.003)"
2022/03/09/18:20:09.912202,4376,1646846409,910480950,imu_iphone,-0.0842978593159,0.00549898001962,-0.940153424196,0.330113875966,"(0.00872665, 0.0, 0.0, 0.0, 0.00872665, 0.0, 0.0, 0.0, 0.00872665)",0.0456687510014,-0.367690473795,-0.621025323868,"(0.000872665, 0.0, 0.0, 0.0, 0.000872665, 0.0, 0.0, 0.0, 0.000872665)",0.523922728524,-2.42165111348,-0.329521592259,"(0.003, 0.0, 0.0, 0.0, 0.003, 0.0, 0.0, 0.0, 0.003)"
2022/03/09/18:20:09.942412,4377,1646846409,941911700,imu_iphone,-0.0846692016503,0.0131407207666,-0.943093754205,0.321298332596,"(0.00872665, 0.0, 0.0, 0.0, 0.00872665, 0.0, 0.0, 0.0, 0.00872665)",0.111778207123,-0.348275005817,-0.570151031017,"(0.000872665, 0.0, 0.0, 0.0, 0.000872665, 0.0, 0.0, 0.0, 0.000872665)",0.677200177833,-2.39005582988,-0.339085882902,"(0.003, 0.0, 0.0, 0.0, 0.003, 0.0, 0.0, 0.0, 0.003)"
2022/03/09/18:20:09.972894,4378,1646846409,971067730,imu_iphone,-0.0837840055429,0.0205565542988,-0.945655542343,0.313517565259,"(0.00872665, 0.0, 0.0, 0.0, 0.00872665, 0.0, 0.0, 0.0, 0.00872665)",0.179409623146,-0.32445064187,-0.503756046295,"(0.000872665, 0.0, 0.0, 0.0, 0.000872665, 0.0, 0.0, 0.0, 0.000872665)",0.810553751439,-2.32469740748,-0.337021231055,"(0.003, 0.0, 0.0, 0.0, 0.003, 0.0, 0.0, 0.0, 0.003)"
2022/03/09/18:20:10.005388,4379,1646846410,354457,imu_iphone,-0.0817750918335,0.0276093553429,-0.947784194213,0.307010877746,"(0.00872665, 0.0, 0.0, 0.0, 0.00872665, 0.0, 0.0, 0.0, 0.00872665)",0.243199169636,-0.30074942112,-0.424060165882,"(0.000872665, 0.0, 0.0, 0.0, 0.000872665, 0.0, 0.0, 0.0, 0.000872665)",0.928448017761,-2.22463590637,-0.356620513201,"(0.003, 0.0, 0.0, 0.0, 0.003, 0.0, 0.0, 0.0, 0.003)"
2022/03/09/18:20:10.034356,4380,1646846410,32477831,imu_iphone,-0.0787666949311,0.0342163777701,-0.949428809599,0.302009905077,"(0.00872665, 0.0, 0.0, 0.0, 0.00872665, 0.0, 0.0, 0.0, 0.00872665)",0.298697859049,-0.277542501688,-0.327426105738,"(0.000872665, 0.0, 0.0, 0.0, 0.000872665, 0.0, 0.0, 0.0, 0.000872665)",1.03374847792,-2.08719344795,-0.358451861143,"(0.003, 0.0, 0.0, 0.0, 0.003, 0.0, 0.0, 0.0, 0.003)"
2022/03/09/18:20:10.061571,4381,1646846410,58690531,imu_iphone,-0.0749745190339,0.0403058916511,-0.9505361768,0.298722669358,"(0.00872665, 0.0, 0.0, 0.0, 0.00872665, 0.0, 0.0, 0.0, 0.00872665)",0.345320135355,-0.258578598499,-0.217454046011,"(0.000872665, 0.0, 0.0, 0.0, 0.000872665, 0.0, 0.0, 0.0, 0.000872665)",1.13617042691,-1.95056989208,-0.387950479388,"(0.003, 0.0, 0.0, 0.0, 0.003, 0.0, 0.0, 0.0, 0.003)"
2022/03/09/18:20:10.090956,4382,1646846410,90184539,imu_iphone,-0.0705912582434,0.0458336601429,-0.951062484076,0.297315154745,"(0.00872665, 0.0, 0.0, 0.0, 0.00872665, 0.0, 0.0, 0.0, 0.00872665)",0.388941437006,-0.235397323966,-0.0961608439684,"(0.000872665, 0.0, 0.0, 0.0, 0.000872665, 0.0, 0.0, 0.0, 0.000872665)",1.21883061424,-1.77046205521,-0.401988474727,"(0.003, 0.0, 0.0, 0.0, 0.003, 0.0, 0.0, 0.0, 0.003)"
2022/03/09/18:20:10.123414,4383,1646846410,121374352,imu_iphone,-0.0658128601004,0.0507964135372,-0.950974722025,0.297884994398,"(0.00872665, 0.0, 0.0, 0.0, 0.00872665, 0.0, 0.0, 0.0, 0.00872665)",0.426793277264,-0.214272990823,0.0330622307956,"(0.000872665, 0.0, 0.0, 0.0, 0.000872665, 0.0, 0.0, 0.0, 0.000872665)",1.30396812066,-1.58221182436,-0.424055866599,"(0.003, 0.0, 0.0, 0.0, 0.003, 0.0, 0.0, 0.0, 0.003)"
2022/03/09/18:20:10.158457,4384,1646846410,157969681,imu_iphone,-0.0608002723383,0.0552409159992,-0.950247785206,0.300467826554,"(0.00872665, 0.0, 0.0, 0.0, 0.00872665, 0.0, 0.0, 0.0, 0.00872665)",0.454214543104,-0.190377175808,0.163812965155,"(0.000872665, 0.0, 0.0, 0.0, 0.000872665, 0.0, 0.0, 0.0, 0.000872665)",1.380099307,-1.39931822777,-0.434322407842,"(0.003, 0.0, 0.0, 0.0, 0.003, 0.0, 0.0, 0.0, 0.003)"
2022/03/09/18:20:10.182224,4385,1646846410,180592375,imu_iphone,-0.0556947190634,0.0591641738777,-0.948884035959,0.304986532654,"(0.00872665, 0.0, 0.0, 0.0, 0.00872665, 0.0, 0.0, 0.0, 0.00872665)",0.475943177938,-0.165143832564,0.28767105937,"(0.000872665, 0.0, 0.0, 0.0, 0.000872665, 0.0, 0.0, 0.0, 0.000872665)",1.46003103733,-1.20840407856,-0.455708599091,"(0.003, 0.0, 0.0, 0.0, 0.003, 0.0, 0.0, 0.0, 0.003)"
2022/03/09/18:20:10.210699,4386,1646846410,207432100,imu_iphone,-0.0506162205621,0.0626724647935,-0.946907751149,0.311248889455,"(0.00872665, 0.0, 0.0, 0.0, 0.00872665, 0.0, 0.0, 0.0, 0.00872665)",0.49433401227,-0.144863277674,0.402260154486,"(0.000872665, 0.0, 0.0, 0.0, 0.000872665, 0.0, 0.0, 0.0, 0.000872665)",1.5096725826,-1.02392427854,-0.47191357255,"(0.003, 0.0, 0.0, 0.0, 0.003, 0.0, 0.0, 0.0, 0.003)"
2022/03/09/18:20:10.243805,4387,1646846410,240667609,imu_iphone,-0.0455608558689,0.0658250768706,-0.944405833825,0.31888695286,"(0.00872665, 0.0, 0.0, 0.0, 0.00872665, 0.0, 0.0, 0.0, 0.00872665)",0.507026016712,-0.119289517403,0.484410226345,"(0.000872665, 0.0, 0.0, 0.0, 0.000872665, 0.0, 0.0, 0.0, 0.000872665)",1.512825986,-0.810933381915,-0.457149937749,"(0.003, 0.0, 0.0, 0.0, 0.003, 0.0, 0.0, 0.0, 0.003)"
2022/03/09/18:20:10.269185,4388,1646846410,267566327,imu_iphone,-0.0406185572489,0.0686385465594,-0.941324550902,0.327943550939,"(0.00872665, 0.0, 0.0, 0.0, 0.00872665, 0.0, 0.0, 0.0, 0.00872665)",0.518239021301,-0.0902687385678,0.574474692345,"(0.000872665, 0.0, 0.0, 0.0, 0.000872665, 0.0, 0.0, 0.0, 0.000872665)",1.64188587606,-0.695633890629,-0.49932590425,"(0.003, 0.0, 0.0, 0.0, 0.003, 0.0, 0.0, 0.0, 0.003)"
2022/03/09/18:20:10.297236,4389,1646846410,296826978,imu_iphone,-0.0357525755975,0.0711477597085,-0.937750124264,0.338059838002,"(0.00872665, 0.0, 0.0, 0.0, 0.00872665, 0.0, 0.0, 0.0, 0.00872665)",0.525929689407,-0.0609584152699,0.64897197485,"(0.000872665, 0.0, 0.0, 0.0, 0.000872665, 0.0, 0.0, 0.0, 0.000872665)",1.67234782308,-0.532575365156,-0.494276248813,"(0.003, 0.0, 0.0, 0.0, 0.003, 0.0, 0.0, 0.0, 0.003)"
2022/03/09/18:20:10.329555,4390,1646846410,329133215,imu_iphone,-0.0309366306971,0.0733907532773,-0.933711881973,0.349054213091,"(0.00872665, 0.0, 0.0, 0.0, 0.00872665, 0.0, 0.0, 0.0, 0.00872665)",0.533839225769,-0.0278322324157,0.708129823208,"(0.000872665, 0.0, 0.0, 0.0, 0.000872665, 0.0, 0.0, 0.0, 0.000872665)",1.71576237604,-0.365153939724,-0.50017375052,"(0.003, 0.0, 0.0, 0.0, 0.003, 0.0, 0.0, 0.0, 0.003)"
2022/03/09/18:20:10.364633,4391,1646846410,362200176,imu_iphone,-0.0261453236974,0.0753778359402,-0.929277711126,0.360662639461,"(0.00872665, 0.0, 0.0, 0.0, 0.00872665, 0.0, 0.0, 0.0, 0.00872665)",0.537493050098,0.00684440694749,0.749569356441,"(0.000872665, 0.0, 0.0, 0.0, 0.000872665, 0.0, 0.0, 0.0, 0.000872665)",1.70692328632,-0.214990059659,-0.49821259439,"(0.003, 0.0, 0.0, 0.0, 0.003, 0.0, 0.0, 0.0, 0.003)"
2022/03/09/18:20:10.387538,4392,1646846410,386907606,imu_iphone,-0.0213442290314,0.0771649581738,-0.924480297699,0.372728013817,"(0.00872665, 0.0, 0.0, 0.0, 0.00872665, 0.0, 0.0, 0.0, 0.00872665)",0.543130457401,0.0399026460946,0.777581214905,"(0.000872665, 0.0, 0.0, 0.0, 0.000872665, 0.0, 0.0, 0.0, 0.000872665)",1.71454951733,-0.0660918094218,-0.502381074429,"(0.003, 0.0, 0.0, 0.0, 0.003, 0.0, 0.0, 0.0, 0.003)"
2022/03/09/18:20:10.418153,4393,1646846410,416508266,imu_iphone,-0.0164985687688,0.0787313202978,-0.919373747248,0.385072836362,"(0.00872665, 0.0, 0.0, 0.0, 0.00872665, 0.0, 0.0, 0.0, 0.00872665)",0.543468415737,0.0717398971319,0.80147331953,"(0.000872665, 0.0, 0.0, 0.0, 0.000872665, 0.0, 0.0, 0.0, 0.000872665)",1.71336253256,0.0752329261042,-0.514650871754,"(0.003, 0.0, 0.0, 0.0, 0.003, 0.0, 0.0, 0.0, 0.003)"
2022/03/09/18:20:10.450750,4394,1646846410,447864543,imu_iphone,-0.0115766602042,0.0801293475939,-0.914023608919,0.397499825072,"(0.00872665, 0.0, 0.0, 0.0, 0.00872665, 0.0, 0.0, 0.0, 0.00872665)",0.544346034527,0.102778352797,0.803456604481,"(0.000872665, 0.0, 0.0, 0.0, 0.000872665, 0.0, 0.0, 0.0, 0.000872665)",1.65763535142,0.235445922352,-0.512854607105,"(0.003, 0.0, 0.0, 0.0, 0.003, 0.0, 0.0, 0.0, 0.003)"
2022/03/09/18:20:10.483509,4395,1646846410,481287535,imu_iphone,-0.00654812850407,0.0813967944999,-0.908495464282,0.409838596569,"(0.00872665, 0.0, 0.0, 0.0, 0.00872665, 0.0, 0.0, 0.0, 0.00872665)",0.542636930943,0.134408026934,0.802187085152,"(0.000872665, 0.0, 0.0, 0.0, 0.000872665, 0.0, 0.0, 0.0, 0.000872665)",1.61713885143,0.384962990731,-0.525411502719,"(0.003, 0.0, 0.0, 0.0, 0.003, 0.0, 0.0, 0.0, 0.003)"
2022/03/09/18:20:10.509459,4396,1646846410,507590899,imu_iphone,-0.00143194914914,0.0825467624182,-0.902836122357,0.421984499364,"(0.00872665, 0.0, 0.0, 0.0, 0.00872665, 0.0, 0.0, 0.0, 0.00872665)",0.538287460804,0.165087193251,0.791340708733,"(0.000872665, 0.0, 0.0, 0.0, 0.000872665, 0.0, 0.0, 0.0, 0.000872665)",1.53992212951,0.553434137553,-0.525315608382,"(0.003, 0.0, 0.0, 0.0, 0.003, 0.0, 0.0, 0.0, 0.003)"
2022/03/09/18:20:10.538305,4397,1646846410,535248831,imu_iphone,0.00377298189423,0.0836109321255,-0.897101247126,0.433825228683,"(0.00872665, 0.0, 0.0, 0.0, 0.00872665, 0.0, 0.0, 0.0, 0.00872665)",0.531950473785,0.18979075551,0.776053309441,"(0.000872665, 0.0, 0.0, 0.0, 0.000872665, 0.0, 0.0, 0.0, 0.000872665)",1.48518678233,0.705775301456,-0.535161150098,"(0.003, 0.0, 0.0, 0.0, 0.003, 0.0, 0.0, 0.0, 0.003)"
2022/03/09/18:20:10.570971,4398,1646846410,568101514,imu_iphone,0.00902754450444,0.0845969898747,-0.891316247623,0.445328192984,"(0.00872665, 0.0, 0.0, 0.0, 0.00872665, 0.0, 0.0, 0.0, 0.00872665)",0.519624054432,0.214090690017,0.762954592705,"(0.000872665, 0.0, 0.0, 0.0, 0.000872665, 0.0, 0.0, 0.0, 0.000872665)",1.40142147124,0.860348493755,-0.516832467914,"(0.003, 0.0, 0.0, 0.0, 0.003, 0.0, 0.0, 0.0, 0.003)"
2022/03/09/18:20:10.601448,4399,1646846410,600952890,imu_iphone,0.0142783218311,0.0854839248972,-0.885527228912,0.456431982847,"(0.00872665, 0.0, 0.0, 0.0, 0.00872665, 0.0, 0.0, 0.0, 0.00872665)",0.502980828285,0.231908082962,0.740613818169,"(0.000872665, 0.0, 0.0, 0.0, 0.000872665, 0.0, 0.0, 0.0, 0.000872665)",1.31257902279,1.04338490859,-0.522193195224,"(0.003, 0.0, 0.0, 0.0, 0.003, 0.0, 0.0, 0.0, 0.003)"
2022/03/09/18:20:10.627136,4400,1646846410,626163068,imu_iphone,0.0194537857657,0.0862872824978,-0.879783719748,0.467072437171,"(0.00872665, 0.0, 0.0, 0.0, 0.00872665, 0.0, 0.0, 0.0, 0.00872665)",0.482432931662,0.250207781792,0.721890151501,"(0.000872665, 0.0, 0.0, 0.0, 0.000872665, 0.0, 0.0, 0.0, 0.000872665)",1.22374300629,1.21574591562,-0.492700424194,"(0.003, 0.0, 0.0, 0.0, 0.003, 0.0, 0.0, 0.0, 0.003)"
2022/03/09/18:20:10.654778,4401,1646846410,654312661,imu_iphone,0.0244658443857,0.0870049364329,-0.87409059428,0.477281045597,"(0.00872665, 0.0, 0.0, 0.0, 0.00872665, 0.0, 0.0, 0.0, 0.00872665)",0.45607727766,0.26060333848,0.70011729002,"(0.000872665, 0.0, 0.0, 0.0, 0.000872665, 0.0, 0.0, 0.0, 0.000872665)",1.13112398744,1.38086178392,-0.480598441958,"(0.003, 0.0, 0.0, 0.0, 0.003, 0.0, 0.0, 0.0, 0.003)"
2022/03/09/18:20:10.692893,4402,1646846410,690084429,imu_iphone,0.0292305357531,0.0875751914597,-0.868531866572,0.486958477049,"(0.00872665, 0.0, 0.0, 0.0, 0.00872665, 0.0, 0.0, 0.0, 0.00872665)",0.419310301542,0.26823374629,0.673395633698,"(0.000872665, 0.0, 0.0, 0.0, 0.000872665, 0.0, 0.0, 0.0, 0.000872665)",1.0204111252,1.53673949003,-0.461525409222,"(0.003, 0.0, 0.0, 0.0, 0.003, 0.0, 0.0, 0.0, 0.003)"
2022/03/09/18:20:10.716723,4403,1646846410,714489422,imu_iphone,0.0336646954615,0.0879991234751,-0.863107138773,0.496154118744,"(0.00872665, 0.0, 0.0, 0.0, 0.00872665, 0.0, 0.0, 0.0, 0.00872665)",0.381230771542,0.27262917161,0.644480586052,"(0.000872665, 0.0, 0.0, 0.0, 0.000872665, 0.0, 0.0, 0.0, 0.000872665)",0.924026207104,1.68178391352,-0.418910316825,"(0.003, 0.0, 0.0, 0.0, 0.003, 0.0, 0.0, 0.0, 0.003)"
2022/03/09/18:20:10.745548,4404,1646846410,743826865,imu_iphone,0.037748779208,0.0882310778911,-0.857892699927,0.504787501801,"(0.00872665, 0.0, 0.0, 0.0, 0.00872665, 0.0, 0.0, 0.0, 0.00872665)",0.341021031141,0.275528371334,0.615275323391,"(0.000872665, 0.0, 0.0, 0.0, 0.000872665, 0.0, 0.0, 0.0, 0.000872665)",0.834156914502,1.80724615797,-0.391755262613,"(0.003, 0.0, 0.0, 0.0, 0.003, 0.0, 0.0, 0.0, 0.003)"
2022/03/09/18:20:10.775954,4405,1646846410,773740936,imu_iphone,0.0414061796123,0.0882386996032,-0.852934964017,0.512836628313,"(0.00872665, 0.0, 0.0, 0.0, 0.00872665, 0.0, 0.0, 0.0, 0.00872665)",0.295350521803,0.275715410709,0.574769079685,"(0.000872665, 0.0, 0.0, 0.0, 0.000872665, 0.0, 0.0, 0.0, 0.000872665)",0.745817618966,1.91980462074,-0.37231385529,"(0.003, 0.0, 0.0, 0.0, 0.003, 0.0, 0.0, 0.0, 0.003)"
2022/03/09/18:20:10.810899,4406,1646846410,807788490,imu_iphone,0.0446559635294,0.0879259002115,-0.848335127791,0.520194571242,"(0.00872665, 0.0, 0.0, 0.0, 0.00872665, 0.0, 0.0, 0.0, 0.00872665)",0.243586659431,0.273179352283,0.52986818552,"(0.000872665, 0.0, 0.0, 0.0, 0.000872665, 0.0, 0.0, 0.0, 0.000872665)",0.671049053147,2.00904336423,-0.321783971786,"(0.003, 0.0, 0.0, 0.0, 0.003, 0.0, 0.0, 0.0, 0.003)"
2022/03/09/18:20:10.835672,4407,1646846410,833768463,imu_iphone,0.0475295741444,0.0872153079503,-0.844196839485,0.526750534736,"(0.00872665, 0.0, 0.0, 0.0, 0.00872665, 0.0, 0.0, 0.0, 0.00872665)",0.194711774588,0.279813200235,0.473698467016,"(0.000872665, 0.0, 0.0, 0.0, 0.000872665, 0.0, 0.0, 0.0, 0.000872665)",0.61145890899,2.06596059993,-0.309271515012,"(0.003, 0.0, 0.0, 0.0, 0.003, 0.0, 0.0, 0.0, 0.003)"
2022/03/09/18:20:10.865066,4408,1646846410,863504539,imu_iphone,0.0501140088697,0.086029883859,-0.840626766775,0.532385277952,"(0.00872665, 0.0, 0.0, 0.0, 0.00872665, 0.0, 0.0, 0.0, 0.00872665)",0.145359098911,0.281302660704,0.404312580824,"(0.000872665, 0.0, 0.0, 0.0, 0.000872665, 0.0, 0.0, 0.0, 0.000872665)",0.561781476438,2.09188861594,-0.296871324778,"(0.003, 0.0, 0.0, 0.0, 0.003, 0.0, 0.0, 0.0, 0.003)"
2022/03/09/18:20:10.893359,4409,1646846410,892722674,imu_iphone,0.052479558791,0.084284904983,-0.837745447998,0.536958578532,"(0.00872665, 0.0, 0.0, 0.0, 0.00872665, 0.0, 0.0, 0.0, 0.00872665)",0.0975753590465,0.290507048368,0.32359495759,"(0.000872665, 0.0, 0.0, 0.0, 0.000872665, 0.0, 0.0, 0.0, 0.000872665)",0.504057617337,2.09736424103,-0.28637147963,"(0.003, 0.0, 0.0, 0.0, 0.003, 0.0, 0.0, 0.0, 0.003)"
2022/03/09/18:20:10.930012,4410,1646846410,928113711,imu_iphone,0.0547101058474,0.0818880378136,-0.835666734666,0.540335323808,"(0.00872665, 0.0, 0.0, 0.0, 0.00872665, 0.0, 0.0, 0.0, 0.00872665)",0.0513372980058,0.299387276173,0.23437911272,"(0.000872665, 0.0, 0.0, 0.0, 0.000872665, 0.0, 0.0, 0.0, 0.000872665)",0.45590279974,2.09595272318,-0.297318636775,"(0.003, 0.0, 0.0, 0.0, 0.003, 0.0, 0.0, 0.0, 0.003)"
2022/03/09/18:20:10.954663,4411,1646846410,953030711,imu_iphone,0.0568723499284,0.0787706749582,-0.834455358503,0.542443518945,"(0.00872665, 0.0, 0.0, 0.0, 0.00872665, 0.0, 0.0, 0.0, 0.00872665)",0.00607258314267,0.312991708517,0.133510902524,"(0.000872665, 0.0, 0.0, 0.0, 0.000872665, 0.0, 0.0, 0.0, 0.000872665)",0.394409094527,2.08020441726,-0.282196567655,"(0.003, 0.0, 0.0, 0.0, 0.003, 0.0, 0.0, 0.0, 0.003)"
2022/03/09/18:20:10.984060,4412,1646846410,982675795,imu_iphone,0.0590068465455,0.0749018629741,-0.834174431226,0.543195104243,"(0.00872665, 0.0, 0.0, 0.0, 0.00872665, 0.0, 0.0, 0.0, 0.00872665)",-0.0331323221326,0.324244320393,0.0283713154495,"(0.000872665, 0.0, 0.0, 0.0, 0.000872665, 0.0, 0.0, 0.0, 0.000872665)",0.306170700006,2.04631395534,-0.292000594139,"(0.003, 0.0, 0.0, 0.0, 0.003, 0.0, 0.0, 0.0, 0.003)"
2022/03/09/18:20:11.012572,4413,1646846411,11940408,imu_iphone,0.0610805023851,0.0702356979262,-0.834807385905,0.542616574944,"(0.00872665, 0.0, 0.0, 0.0, 0.00872665, 0.0, 0.0, 0.0, 0.00872665)",-0.0764060840011,0.340841472149,-0.0707058236003,"(0.000872665, 0.0, 0.0, 0.0, 0.000872665, 0.0, 0.0, 0.0, 0.000872665)",0.23366676081,2.01326987788,-0.287490636706,"(0.003, 0.0, 0.0, 0.0, 0.003, 0.0, 0.0, 0.0, 0.003)"
2022/03/09/18:20:11.050147,4414,1646846411,49510138,imu_iphone,0.0630536943423,0.0647699822935,-0.836283970449,0.540794047483,"(0.00872665, 0.0, 0.0, 0.0, 0.00872665, 0.0, 0.0, 0.0, 0.00872665)",-0.119092382491,0.356645703316,-0.157142937183,"(0.000872665, 0.0, 0.0, 0.0, 0.000872665, 0.0, 0.0, 0.0, 0.000872665)",0.128915025294,1.95517647475,-0.297577668428,"(0.003, 0.0, 0.0, 0.0, 0.003, 0.0, 0.0, 0.0, 0.003)"
2022/03/09/18:20:11.073311,4415,1646846411,72515768,imu_iphone,0.064800733936,0.0585353919327,-0.838467476188,0.537909624517,"(0.00872665, 0.0, 0.0, 0.0, 0.00872665, 0.0, 0.0, 0.0, 0.00872665)",-0.158224985003,0.368920624256,-0.235627025366,"(0.000872665, 0.0, 0.0, 0.0, 0.000872665, 0.0, 0.0, 0.0, 0.000872665)",0.00931691687554,1.90712464124,-0.310677770376,"(0.003, 0.0, 0.0, 0.0, 0.003, 0.0, 0.0, 0.0, 0.003)"
2022/03/09/18:20:11.104097,4416,1646846411,102081362,imu_iphone,0.066189319656,0.0516313518506,-0.84118804742,0.534187089274,"(0.00872665, 0.0, 0.0, 0.0, 0.00872665, 0.0, 0.0, 0.0, 0.00872665)",-0.201993063092,0.37961396575,-0.292554229498,"(0.000872665, 0.0, 0.0, 0.0, 0.000872665, 0.0, 0.0, 0.0, 0.000872665)",-0.139465741217,1.84429250836,-0.328213570118,"(0.003, 0.0, 0.0, 0.0, 0.003, 0.0, 0.0, 0.0, 0.003)"
2022/03/09/18:20:11.132657,4417,1646846411,131071497,imu_iphone,0.0670820745978,0.0441549460152,-0.844283483046,0.529845011551,"(0.00872665, 0.0, 0.0, 0.0, 0.00872665, 0.0, 0.0, 0.0, 0.00872665)",-0.241308301687,0.380133271217,-0.335561692715,"(0.000872665, 0.0, 0.0, 0.0, 0.000872665, 0.0, 0.0, 0.0, 0.000872665)",-0.299443368763,1.77693901598,-0.349878088832,"(0.003, 0.0, 0.0, 0.0, 0.003, 0.0, 0.0, 0.0, 0.003)"
2022/03/09/18:20:11.164401,4418,1646846411,161565039,imu_iphone,0.0673406470984,0.0362612316576,-0.84759169843,0.525108248916,"(0.00872665, 0.0, 0.0, 0.0, 0.00872665, 0.0, 0.0, 0.0, 0.00872665)",-0.286700814962,0.375412374735,-0.367085009813,"(0.000872665, 0.0, 0.0, 0.0, 0.000872665, 0.0, 0.0, 0.0, 0.000872665)",-0.480710233413,1.69986423522,-0.352475422025,"(0.003, 0.0, 0.0, 0.0, 0.003, 0.0, 0.0, 0.0, 0.003)"
2022/03/09/18:20:11.193003,4419,1646846411,191209333,imu_iphone,0.066858293597,0.0281050352745,-0.850971159477,0.52018089287,"(0.00872665, 0.0, 0.0, 0.0, 0.00872665, 0.0, 0.0, 0.0, 0.00872665)",-0.327168464661,0.361138790846,-0.381509125233,"(0.000872665, 0.0, 0.0, 0.0, 0.000872665, 0.0, 0.0, 0.0, 0.000872665)",-0.678642028123,1.59321248353,-0.3849140203,"(0.003, 0.0, 0.0, 0.0, 0.003, 0.0, 0.0, 0.0, 0.003)"
2022/03/09/18:20:11.224867,4420,1646846411,220981133,imu_iphone,0.0655134330859,0.0198471426777,-0.85431263133,0.515231995282,"(0.00872665, 0.0, 0.0, 0.0, 0.00872665, 0.0, 0.0, 0.0, 0.00872665)",-0.369109541178,0.336220562458,-0.38712015748,"(0.000872665, 0.0, 0.0, 0.0, 0.000872665, 0.0, 0.0, 0.0, 0.000872665)",-0.86817645371,1.47043513432,-0.390117457509,"(0.003, 0.0, 0.0, 0.0, 0.003, 0.0, 0.0, 0.0, 0.003)"
2022/03/09/18:20:11.252322,4421,1646846411,250728891,imu_iphone,0.0632689662951,0.0116776514923,-0.857546140045,0.510367796843,"(0.00872665, 0.0, 0.0, 0.0, 0.00872665, 0.0, 0.0, 0.0, 0.00872665)",-0.407544285059,0.306373178959,-0.3936201334,"(0.000872665, 0.0, 0.0, 0.0, 0.000872665, 0.0, 0.0, 0.0, 0.000872665)",-1.06635372184,1.3266344136,-0.413971758485,"(0.003, 0.0, 0.0, 0.0, 0.003, 0.0, 0.0, 0.0, 0.003)"
2022/03/09/18:20:11.283233,4422,1646846411,281616432,imu_iphone,0.0601422674807,0.00376863572867,-0.860655508708,0.50560933573,"(0.00872665, 0.0, 0.0, 0.0, 0.00872665, 0.0, 0.0, 0.0, 0.00872665)",-0.442162424326,0.263228267431,-0.402390569448,"(0.000872665, 0.0, 0.0, 0.0, 0.000872665, 0.0, 0.0, 0.0, 0.000872665)",-1.2275337562,1.1587803673,-0.401608990431,"(0.003, 0.0, 0.0, 0.0, 0.003, 0.0, 0.0, 0.0, 0.003)"
2022/03/09/18:20:11.312751,4423,1646846411,310740350,imu_iphone,0.0561173893309,-0.00378600820171,-0.863736583348,0.500794987338,"(0.00872665, 0.0, 0.0, 0.0, 0.00872665, 0.0, 0.0, 0.0, 0.00872665)",-0.468739688396,0.21930539608,-0.412984848022,"(0.000872665, 0.0, 0.0, 0.0, 0.000872665, 0.0, 0.0, 0.0, 0.000872665)",-1.37925935447,0.952113819122,-0.433145948052,"(0.003, 0.0, 0.0, 0.0, 0.003, 0.0, 0.0, 0.0, 0.003)"
2022/03/09/18:20:11.341886,4424,1646846411,340240249,imu_iphone,0.0512559324469,-0.0108099228594,-0.866716280536,0.496043207806,"(0.00872665, 0.0, 0.0, 0.0, 0.00872665, 0.0, 0.0, 0.0, 0.00872665)",-0.490152925253,0.171843647957,-0.418396413326,"(0.000872665, 0.0, 0.0, 0.0, 0.000872665, 0.0, 0.0, 0.0, 0.000872665)",-1.47781154305,0.737209640443,-0.438088599443,"(0.003, 0.0, 0.0, 0.0, 0.003, 0.0, 0.0, 0.0, 0.003)"
2022/03/09/18:20:11.372307,4425,1646846411,370759519,imu_iphone,0.045631564558,-0.017222592371,-0.869649167661,0.491254992662,"(0.00872665, 0.0, 0.0, 0.0, 0.00872665, 0.0, 0.0, 0.0, 0.00872665)",-0.505899190903,0.117507196963,-0.434427201748,"(0.000872665, 0.0, 0.0, 0.0, 0.000872665, 0.0, 0.0, 0.0, 0.000872665)",-1.5530741255,0.523375502229,-0.435564356446,"(0.003, 0.0, 0.0, 0.0, 0.003, 0.0, 0.0, 0.0, 0.003)"
2022/03/09/18:20:11.404113,4426,1646846411,401105367,imu_iphone,0.039315399123,-0.0229588090457,-0.872598753165,0.486311225918,"(0.00872665, 0.0, 0.0, 0.0, 0.00872665, 0.0, 0.0, 0.0, 0.00872665)",-0.512918651104,0.0696040540934,-0.454910367727,"(0.000872665, 0.0, 0.0, 0.0, 0.000872665, 0.0, 0.0, 0.0, 0.000872665)",-1.59222605824,0.306590932086,-0.448570318222,"(0.003, 0.0, 0.0, 0.0, 0.003, 0.0, 0.0, 0.0, 0.003)"
2022/03/09/18:20:11.431924,4427,1646846411,429623468,imu_iphone,0.0324325471109,-0.0279721139134,-0.875626379918,0.481086409621,"(0.00872665, 0.0, 0.0, 0.0, 0.00872665, 0.0, 0.0, 0.0, 0.00872665)",-0.516407668591,0.0215322393924,-0.483086287975,"(0.000872665, 0.0, 0.0, 0.0, 0.000872665, 0.0, 0.0, 0.0, 0.000872665)",-1.59171004146,0.0991605548188,-0.437154799104,"(0.003, 0.0, 0.0, 0.0, 0.003, 0.0, 0.0, 0.0, 0.003)"
2022/03/09/18:20:11.468044,4428,1646846411,459639591,imu_iphone,0.0250601382638,-0.0322099771482,-0.878788645935,0.475462956095,"(0.00872665, 0.0, 0.0, 0.0, 0.00872665, 0.0, 0.0, 0.0, 0.00872665)",-0.513955056667,-0.024233084172,-0.513580262661,"(0.000872665, 0.0, 0.0, 0.0, 0.000872665, 0.0, 0.0, 0.0, 0.000872665)",-1.5541945982,-0.122862362238,-0.448511846066,"(0.003, 0.0, 0.0, 0.0, 0.003, 0.0, 0.0, 0.0, 0.003)"
2022/03/09/18:20:11.491729,4429,1646846411,490229733,imu_iphone,0.0173116441214,-0.0356681124765,-0.882108999733,0.469373843881,"(0.00872665, 0.0, 0.0, 0.0, 0.00872665, 0.0, 0.0, 0.0, 0.00872665)",-0.502379596233,-0.0649310871959,-0.547807276249,"(0.000872665, 0.0, 0.0, 0.0, 0.000872665, 0.0, 0.0, 0.0, 0.000872665)",-1.50077750579,-0.330333441608,-0.451615548134,"(0.003, 0.0, 0.0, 0.0, 0.003, 0.0, 0.0, 0.0, 0.003)"
2022/03/09/18:20:11.522223,4430,1646846411,520770516,imu_iphone,0.00926992023266,-0.0383317269554,-0.885621264193,0.462730724825,"(0.00872665, 0.0, 0.0, 0.0, 0.00872665, 0.0, 0.0, 0.0, 0.00872665)",-0.491192787886,-0.103421270847,-0.581982910633,"(0.000872665, 0.0, 0.0, 0.0, 0.000872665, 0.0, 0.0, 0.0, 0.000872665)",-1.43593232274,-0.522984177321,-0.443205497861,"(0.003, 0.0, 0.0, 0.0, 0.003, 0.0, 0.0, 0.0, 0.003)"
2022/03/09/18:20:11.550514,4431,1646846411,548798150,imu_iphone,0.00103057905702,-0.0401463093847,-0.889327994442,0.455502941869,"(0.00872665, 0.0, 0.0, 0.0, 0.00872665, 0.0, 0.0, 0.0, 0.00872665)",-0.472356170416,-0.138286724687,-0.618687391281,"(0.000872665, 0.0, 0.0, 0.0, 0.000872665, 0.0, 0.0, 0.0, 0.000872665)",-1.35786088407,-0.709188979045,-0.431311676502,"(0.003, 0.0, 0.0, 0.0, 0.003, 0.0, 0.0, 0.0, 0.003)"
2022/03/09/18:20:11.585550,4432,1646846411,581258498,imu_iphone,-0.0073071145487,-0.0411075531418,-0.89322195054,0.447673231527,"(0.00872665, 0.0, 0.0, 0.0, 0.00872665, 0.0, 0.0, 0.0, 0.00872665)",-0.455347687006,-0.173161670566,-0.652861475945,"(0.000872665, 0.0, 0.0, 0.0, 0.000872665, 0.0, 0.0, 0.0, 0.000872665)",-1.2843242535,-0.889687190652,-0.422943726182,"(0.003, 0.0, 0.0, 0.0, 0.003, 0.0, 0.0, 0.0, 0.003)"
2022/03/09/18:20:11.609415,4433,1646846411,607802751,imu_iphone,-0.0156607672352,-0.0411794419981,-0.897284701419,0.439248401848,"(0.00872665, 0.0, 0.0, 0.0, 0.00872665, 0.0, 0.0, 0.0, 0.00872665)",-0.431012332439,-0.204919651151,-0.680307328701,"(0.000872665, 0.0, 0.0, 0.0, 0.000872665, 0.0, 0.0, 0.0, 0.000872665)",-1.20086796775,-1.05450967491,-0.404520319104,"(0.003, 0.0, 0.0, 0.0, 0.003, 0.0, 0.0, 0.0, 0.003)"
2022/03/09/18:20:11.642344,4434,1646846411,640778642,imu_iphone,-0.023931533981,-0.0403136954041,-0.901475597374,0.430283435637,"(0.00872665, 0.0, 0.0, 0.0, 0.00872665, 0.0, 0.0, 0.0, 0.00872665)",-0.407036691904,-0.239377766848,-0.703006207943,"(0.000872665, 0.0, 0.0, 0.0, 0.000872665, 0.0, 0.0, 0.0, 0.000872665)",-1.11229288325,-1.22450314432,-0.398933304548,"(0.003, 0.0, 0.0, 0.0, 0.003, 0.0, 0.0, 0.0, 0.003)"
2022/03/09/18:20:11.671146,4435,1646846411,668982455,imu_iphone,-0.0320099294699,-0.0384818899857,-0.905760462594,0.420823588883,"(0.00872665, 0.0, 0.0, 0.0, 0.00872665, 0.0, 0.0, 0.0, 0.00872665)",-0.371595829725,-0.266304910183,-0.719873666763,"(0.000872665, 0.0, 0.0, 0.0, 0.000872665, 0.0, 0.0, 0.0, 0.000872665)",-0.989585992992,-1.38100007057,-0.385358408689,"(0.003, 0.0, 0.0, 0.0, 0.003, 0.0, 0.0, 0.0, 0.003)"
2022/03/09/18:20:11.700414,4436,1646846411,697429525,imu_iphone,-0.0397628076943,-0.035750016393,-0.910096293745,0.410932587614,"(0.00872665, 0.0, 0.0, 0.0, 0.00872665, 0.0, 0.0, 0.0, 0.00872665)",-0.339042425156,-0.2925606668,-0.733833193779,"(0.000872665, 0.0, 0.0, 0.0, 0.000872665, 0.0, 0.0, 0.0, 0.000872665)",-0.851858044267,-1.52814174414,-0.365952084661,"(0.003, 0.0, 0.0, 0.0, 0.003, 0.0, 0.0, 0.0, 0.003)"
2022/03/09/18:20:11.734469,4437,1646846411,729692863,imu_iphone,-0.0470580693984,-0.0321433232026,-0.91440580471,0.400767225693,"(0.00872665, 0.0, 0.0, 0.0, 0.00872665, 0.0, 0.0, 0.0, 0.00872665)",-0.301798671484,-0.313276380301,-0.730235934258,"(0.000872665, 0.0, 0.0, 0.0, 0.000872665, 0.0, 0.0, 0.0, 0.000872665)",-0.693440161496,-1.66162359104,-0.361300039887,"(0.003, 0.0, 0.0, 0.0, 0.003, 0.0, 0.0, 0.0, 0.003)"
2022/03/09/18:20:11.763669,4438,1646846411,763049347,imu_iphone,-0.0537157683999,-0.0277667181563,-0.918628131315,0.390468925709,"(0.00872665, 0.0, 0.0, 0.0, 0.00872665, 0.0, 0.0, 0.0, 0.00872665)",-0.256504029036,-0.326446503401,-0.723169624805,"(0.000872665, 0.0, 0.0, 0.0, 0.000872665, 0.0, 0.0, 0.0, 0.000872665)",-0.505969949216,-1.79369304299,-0.353900973201,"(0.003, 0.0, 0.0, 0.0, 0.003, 0.0, 0.0, 0.0, 0.003)"
2022/03/09/18:20:11.790516,4439,1646846411,788436270,imu_iphone,-0.0596154274686,-0.0227476412718,-0.922702958504,0.380194418677,"(0.00872665, 0.0, 0.0, 0.0, 0.00872665, 0.0, 0.0, 0.0, 0.00872665)",-0.209577009082,-0.329869121313,-0.701389253139,"(0.000872665, 0.0, 0.0, 0.0, 0.000872665, 0.0, 0.0, 0.0, 0.000872665)",-0.312297010571,-1.90770921662,-0.325820304751,"(0.003, 0.0, 0.0, 0.0, 0.003, 0.0, 0.0, 0.0, 0.003)"
2022/03/09/18:20:11.819398,4440,1646846411,816516001,imu_iphone,-0.0646417240268,-0.0172498100345,-0.926568896116,0.370126967835,"(0.00872665, 0.0, 0.0, 0.0, 0.00872665, 0.0, 0.0, 0.0, 0.00872665)",-0.157974585891,-0.333202570677,-0.675388097763,"(0.000872665, 0.0, 0.0, 0.0, 0.000872665, 0.0, 0.0, 0.0, 0.000872665)",-0.116901463922,-2.00559116811,-0.308313156366,"(0.003, 0.0, 0.0, 0.0, 0.003, 0.0, 0.0, 0.0, 0.003)"
2022/03/09/18:20:11.850734,4441,1646846411,848224523,imu_iphone,-0.0686896268041,-0.011412052297,-0.930175840557,0.360450282114,"(0.00872665, 0.0, 0.0, 0.0, 0.00872665, 0.0, 0.0, 0.0, 0.00872665)",-0.107820667326,-0.324760377407,-0.639824569225,"(0.000872665, 0.0, 0.0, 0.0, 0.000872665, 0.0, 0.0, 0.0, 0.000872665)",0.0435408345424,-2.06387957588,-0.280143025517,"(0.003, 0.0, 0.0, 0.0, 0.003, 0.0, 0.0, 0.0, 0.003)"
2022/03/09/18:20:11.886951,4442,1646846411,884454546,imu_iphone,-0.0717329499393,-0.00538817606679,-0.933497271098,0.351295027439,"(0.00872665, 0.0, 0.0, 0.0, 0.00872665, 0.0, 0.0, 0.0, 0.00872665)",-0.052577778697,-0.317867159843,-0.596553444862,"(0.000872665, 0.0, 0.0, 0.0, 0.000872665, 0.0, 0.0, 0.0, 0.000872665)",0.210262366533,-2.11031421572,-0.277111244202,"(0.003, 0.0, 0.0, 0.0, 0.003, 0.0, 0.0, 0.0, 0.003)"
2022/03/09/18:20:11.908527,4443,1646846411,906397514,imu_iphone,-0.0737582172044,0.000663997180351,-0.936490563618,0.342847938242,"(0.00872665, 0.0, 0.0, 0.0, 0.00872665, 0.0, 0.0, 0.0, 0.00872665)",0.00247695343569,-0.303906053305,-0.543495297432,"(0.000872665, 0.0, 0.0, 0.0, 0.000872665, 0.0, 0.0, 0.0, 0.000872665)",0.358808431663,-2.13258830667,-0.263021793365,"(0.003, 0.0, 0.0, 0.0, 0.003, 0.0, 0.0, 0.0, 0.003)"
2022/03/09/18:20:11.940065,4444,1646846411,937039236,imu_iphone,-0.0747494610679,0.0066588386867,-0.939117001896,0.335302005196,"(0.00872665, 0.0, 0.0, 0.0, 0.00872665, 0.0, 0.0, 0.0, 0.00872665)",0.0574284791946,-0.287313938141,-0.481099396944,"(0.000872665, 0.0, 0.0, 0.0, 0.000872665, 0.0, 0.0, 0.0, 0.000872665)",0.487205064744,-2.11696030721,-0.260784063935,"(0.003, 0.0, 0.0, 0.0, 0.003, 0.0, 0.0, 0.0, 0.003)"
2022/03/09/18:20:11.971168,4445,1646846411,969136501,imu_iphone,-0.0747799822858,0.0124435191715,-0.941347159074,0.328813988727,"(0.00872665, 0.0, 0.0, 0.0, 0.00872665, 0.0, 0.0, 0.0, 0.00872665)",0.108421586454,-0.272058099508,-0.410044550896,"(0.000872665, 0.0, 0.0, 0.0, 0.000872665, 0.0, 0.0, 0.0, 0.000872665)",0.609416111112,-2.08327581346,-0.265436108708,"(0.003, 0.0, 0.0, 0.0, 0.003, 0.0, 0.0, 0.0, 0.003)"
2022/03/09/18:20:12.002719,4446,1646846412,143041,imu_iphone,-0.0739088182373,0.017970362477,-0.943154460365,0.323533949613,"(0.00872665, 0.0, 0.0, 0.0, 0.00872665, 0.0, 0.0, 0.0, 0.00872665)",0.159667178988,-0.249322488904,-0.330108344555,"(0.000872665, 0.0, 0.0, 0.0, 0.000872665, 0.0, 0.0, 0.0, 0.000872665)",0.700350035504,-2.03182177752,-0.26544429481,"(0.003, 0.0, 0.0, 0.0, 0.003, 0.0, 0.0, 0.0, 0.003)"
2022/03/09/18:20:12.027351,4447,1646846412,25499131,imu_iphone,-0.0722197036549,0.0231681767017,-0.944520180763,0.31957656066,"(0.00872665, 0.0, 0.0, 0.0, 0.00872665, 0.0, 0.0, 0.0, 0.00872665)",0.207152575254,-0.233381286263,-0.24637375772,"(0.000872665, 0.0, 0.0, 0.0, 0.000872665, 0.0, 0.0, 0.0, 0.000872665)",0.777532185763,-1.95543769911,-0.272131755352,"(0.003, 0.0, 0.0, 0.0, 0.003, 0.0, 0.0, 0.0, 0.003)"
2022/03/09/18:20:12.058760,4448,1646846412,55119056,imu_iphone,-0.0698247579477,0.0280339935166,-0.9454301034,0.317018166625,"(0.00872665, 0.0, 0.0, 0.0, 0.00872665, 0.0, 0.0, 0.0, 0.00872665)",0.252950280905,-0.21665610373,-0.155347555876,"(0.000872665, 0.0, 0.0, 0.0, 0.000872665, 0.0, 0.0, 0.0, 0.000872665)",0.85147826761,-1.85356209934,-0.288158388734,"(0.003, 0.0, 0.0, 0.0, 0.003, 0.0, 0.0, 0.0, 0.003)"
2022/03/09/18:20:12.090553,4449,1646846412,89122041,imu_iphone,-0.0668250888053,0.0325339449983,-0.945861781171,0.315945313066,"(0.00872665, 0.0, 0.0, 0.0, 0.00872665, 0.0, 0.0, 0.0, 0.00872665)",0.297280699015,-0.200448870659,-0.0598819106817,"(0.000872665, 0.0, 0.0, 0.0, 0.000872665, 0.0, 0.0, 0.0, 0.000872665)",0.89764722459,-1.74678258598,-0.302078855038,"(0.003, 0.0, 0.0, 0.0, 0.003, 0.0, 0.0, 0.0, 0.003)"
2022/03/09/18:20:12.119753,4450,1646846412,115270576,imu_iphone,-0.0632877228976,0.0366911193002,-0.945822245121,0.316336381925,"(0.00872665, 0.0, 0.0, 0.0, 0.00872665, 0.0, 0.0, 0.0, 0.00872665)",0.333126008511,-0.182150617242,0.0307529997081,"(0.000872665, 0.0, 0.0, 0.0, 0.000872665, 0.0, 0.0, 0.0, 0.000872665)",0.971137662157,-1.6162668854,-0.322046511769,"(0.003, 0.0, 0.0, 0.0, 0.003, 0.0, 0.0, 0.0, 0.003)"
2022/03/09/18:20:12.145155,4451,1646846412,144655926,imu_iphone,-0.0593395777535,0.0405379086216,-0.94530491312,0.318173087656,"(0.00872665, 0.0, 0.0, 0.0, 0.00872665, 0.0, 0.0, 0.0, 0.00872665)",0.367404252291,-0.168294772506,0.122156411409,"(0.000872665, 0.0, 0.0, 0.0, 0.000872665, 0.0, 0.0, 0.0, 0.000872665)",1.03576196663,-1.47365300328,-0.346068627834,"(0.003, 0.0, 0.0, 0.0, 0.003, 0.0, 0.0, 0.0, 0.003)"
2022/03/09/18:20:12.176167,4452,1646846412,174579157,imu_iphone,-0.0550687487938,0.044113506725,-0.944330179976,0.321343963095,"(0.00872665, 0.0, 0.0, 0.0, 0.00872665, 0.0, 0.0, 0.0, 0.00872665)",0.399918943644,-0.151664584875,0.20674701035,"(0.000872665, 0.0, 0.0, 0.0, 0.000872665, 0.0, 0.0, 0.0, 0.000872665)",1.07635304533,-1.33449453324,-0.367268877625,"(0.003, 0.0, 0.0, 0.0, 0.003, 0.0, 0.0, 0.0, 0.003)"
2022/03/09/18:20:12.207474,4453,1646846412,206979098,imu_iphone,-0.0505345986092,0.0474222222752,-0.942901476533,0.325782431587,"(0.00872665, 0.0, 0.0, 0.0, 0.00872665, 0.0, 0.0, 0.0, 0.00872665)",0.423557937145,-0.130794599652,0.285154283047,"(0.000872665, 0.0, 0.0, 0.0, 0.000872665, 0.0, 0.0, 0.0, 0.000872665)",1.12905560799,-1.15896535859,-0.36710983336,"(0.003, 0.0, 0.0, 0.0, 0.003, 0.0, 0.0, 0.0, 0.003)"
2022/03/09/18:20:12.237745,4454,1646846412,234065885,imu_iphone,-0.0458185329129,0.0504937107267,-0.941034843368,0.331367576546,"(0.00872665, 0.0, 0.0, 0.0, 0.00872665, 0.0, 0.0, 0.0, 0.00872665)",0.447561085224,-0.110558457673,0.3582508564,"(0.000872665, 0.0, 0.0, 0.0, 0.000872665, 0.0, 0.0, 0.0, 0.000872665)",1.18510007367,-0.995927444547,-0.394332130551,"(0.003, 0.0, 0.0, 0.0, 0.003, 0.0, 0.0, 0.0, 0.003)"
2022/03/09/18:20:12.264015,4455,1646846412,263504728,imu_iphone,-0.0409757813709,0.0533590135502,-0.938758654166,0.33794376787,"(0.00872665, 0.0, 0.0, 0.0, 0.00872665, 0.0, 0.0, 0.0, 0.00872665)",0.461406767368,-0.0914285555482,0.419792801142,"(0.000872665, 0.0, 0.0, 0.0, 0.000872665, 0.0, 0.0, 0.0, 0.000872665)",1.23741321176,-0.825882885084,-0.395815569162,"(0.003, 0.0, 0.0, 0.0, 0.003, 0.0, 0.0, 0.0, 0.003)"
2022/03/09/18:20:12.294950,4456,1646846412,293426588,imu_iphone,-0.0360077057913,0.0560159964114,-0.936123698836,0.345308664455,"(0.00872665, 0.0, 0.0, 0.0, 0.00872665, 0.0, 0.0, 0.0, 0.00872665)",0.473260730505,-0.0674296319485,0.442574113607,"(0.000872665, 0.0, 0.0, 0.0, 0.000872665, 0.0, 0.0, 0.0, 0.000872665)",1.28894837782,-0.651271357834,-0.399102873802,"(0.003, 0.0, 0.0, 0.0, 0.003, 0.0, 0.0, 0.0, 0.003)"
2022/03/09/18:20:12.329515,4457,1646846412,327905647,imu_iphone,-0.0309475625623,0.0584912824683,-0.933188180184,0.353243313613,"(0.00872665, 0.0, 0.0, 0.0, 0.00872665, 0.0, 0.0, 0.0, 0.00872665)",0.484201580286,-0.0418429709971,0.512169897556,"(0.000872665, 0.0, 0.0, 0.0, 0.000872665, 0.0, 0.0, 0.0, 0.000872665)",1.38884644926,-0.543547994234,-0.414332531691,"(0.003, 0.0, 0.0, 0.0, 0.003, 0.0, 0.0, 0.0, 0.003)"
2022/03/09/18:20:12.354842,4458,1646846412,353276127,imu_iphone,-0.0258567678186,0.0607405501932,-0.929887328706,0.361872310398,"(0.00872665, 0.0, 0.0, 0.0, 0.00872665, 0.0, 0.0, 0.0, 0.00872665)",0.490442752838,-0.0154017359018,0.566526174545,"(0.000872665, 0.0, 0.0, 0.0, 0.000872665, 0.0, 0.0, 0.0, 0.000872665)",1.35701946974,-0.339117019325,-0.401197346449,"(0.003, 0.0, 0.0, 0.0, 0.003, 0.0, 0.0, 0.0, 0.003)"
2022/03/09/18:20:12.387836,4459,1646846412,385783050,imu_iphone,-0.0207538899252,0.0627828875419,-0.926268398149,0.371018112329,"(0.00872665, 0.0, 0.0, 0.0, 0.00872665, 0.0, 0.0, 0.0, 0.00872665)",0.493735581636,0.0146725066006,0.587352335453,"(0.000872665, 0.0, 0.0, 0.0, 0.000872665, 0.0, 0.0, 0.0, 0.000872665)",1.31899663433,-0.160699009504,-0.433813115358,"(0.003, 0.0, 0.0, 0.0, 0.003, 0.0, 0.0, 0.0, 0.003)"
2022/03/09/18:20:12.413481,4460,1646846412,412241306,imu_iphone,-0.0156215861072,0.064620101119,-0.922402512959,0.380465258159,"(0.00872665, 0.0, 0.0, 0.0, 0.00872665, 0.0, 0.0, 0.0, 0.00872665)",0.493846982718,0.042627364397,0.614816427231,"(0.000872665, 0.0, 0.0, 0.0, 0.000872665, 0.0, 0.0, 0.0, 0.000872665)",1.34385504842,-0.003469299227,-0.414983326793,"(0.003, 0.0, 0.0, 0.0, 0.003, 0.0, 0.0, 0.0, 0.003)"
2022/03/09/18:20:12.449020,4461,1646846412,447134355,imu_iphone,-0.0104885077601,0.0662583094977,-0.918251972555,0.390273163983,"(0.00872665, 0.0, 0.0, 0.0, 0.00872665, 0.0, 0.0, 0.0, 0.00872665)",0.491458594799,0.0730476230383,0.64089268446,"(0.000872665, 0.0, 0.0, 0.0, 0.000872665, 0.0, 0.0, 0.0, 0.000872665)",1.34857331291,0.132174738385,-0.445300555229,"(0.003, 0.0, 0.0, 0.0, 0.003, 0.0, 0.0, 0.0, 0.003)"
2022/03/09/18:20:12.475198,4462,1646846412,472754243,imu_iphone,-0.00539113735104,0.0677239137426,-0.913906034983,0.40020015788,"(0.00872665, 0.0, 0.0, 0.0, 0.00872665, 0.0, 0.0, 0.0, 0.00872665)",0.485665380955,0.0965688228607,0.652045965195,"(0.000872665, 0.0, 0.0, 0.0, 0.000872665, 0.0, 0.0, 0.0, 0.000872665)",1.28706352785,0.295734552965,-0.418974636197,"(0.003, 0.0, 0.0, 0.0, 0.003, 0.0, 0.0, 0.0, 0.003)"
2022/03/09/18:20:12.504552,4463,1646846412,502202371,imu_iphone,-0.000321057022775,0.0690476161169,-0.909362491128,0.410234303003,"(0.00872665, 0.0, 0.0, 0.0, 0.00872665, 0.0, 0.0, 0.0, 0.00872665)",0.47859069705,0.121834538877,0.663092672825,"(0.000872665, 0.0, 0.0, 0.0, 0.000872665, 0.0, 0.0, 0.0, 0.000872665)",1.26070544913,0.441197490916,-0.437825474739,"(0.003, 0.0, 0.0, 0.0, 0.003, 0.0, 0.0, 0.0, 0.003)"
2022/03/09/18:20:12.531950,4464,1646846412,531486288,imu_iphone,0.00470932573371,0.0702228474914,-0.904679529594,0.420239839467,"(0.00872665, 0.0, 0.0, 0.0, 0.00872665, 0.0, 0.0, 0.0, 0.00872665)",0.467684179544,0.144519835711,0.670295357704,"(0.000872665, 0.0, 0.0, 0.0, 0.000872665, 0.0, 0.0, 0.0, 0.000872665)",1.20372104354,0.582799585462,-0.423806775212,"(0.003, 0.0, 0.0, 0.0, 0.003, 0.0, 0.0, 0.0, 0.003)"
2022/03/09/18:20:12.562295,4465,1646846412,561739511,imu_iphone,0.00967115723531,0.0712479684039,-0.899880744972,0.430168386269,"(0.00872665, 0.0, 0.0, 0.0, 0.00872665, 0.0, 0.0, 0.0, 0.00872665)",0.45507261157,0.170705735683,0.671408832073,"(0.000872665, 0.0, 0.0, 0.0, 0.000872665, 0.0, 0.0, 0.0, 0.000872665)",1.13050096661,0.736749318391,-0.433141855001,"(0.003, 0.0, 0.0, 0.0, 0.003, 0.0, 0.0, 0.0, 0.003)"
2022/03/09/18:20:12.594169,4466,1646846412,591674425,imu_iphone,0.0145454606456,0.0721810075272,-0.894979784042,0.439988088343,"(0.00872665, 0.0, 0.0, 0.0, 0.00872665, 0.0, 0.0, 0.0, 0.00872665)",0.439320743084,0.183976233006,0.667509973049,"(0.000872665, 0.0, 0.0, 0.0, 0.000872665, 0.0, 0.0, 0.0, 0.000872665)",1.06495740674,0.877170421556,-0.414133141637,"(0.003, 0.0, 0.0, 0.0, 0.003, 0.0, 0.0, 0.0, 0.003)"
2022/03/09/18:20:12.621721,4467,1646846412,621277713,imu_iphone,0.0192767762283,0.0729857454435,-0.890043449404,0.449582189408,"(0.00872665, 0.0, 0.0, 0.0, 0.00872665, 0.0, 0.0, 0.0, 0.00872665)",0.422282785177,0.20294585824,0.66296428442,"(0.000872665, 0.0, 0.0, 0.0, 0.000872665, 0.0, 0.0, 0.0, 0.000872665)",0.996412178725,0.995534365475,-0.417169600725,"(0.003, 0.0, 0.0, 0.0, 0.003, 0.0, 0.0, 0.0, 0.003)"
2022/03/09/18:20:12.650988,4468,1646846412,650641205,imu_iphone,0.0238577508553,0.0736893994574,-0.885101738716,0.458906953809,"(0.00872665, 0.0, 0.0, 0.0, 0.00872665, 0.0, 0.0, 0.0, 0.00872665)",0.400358170271,0.213017374277,0.644187688828,"(0.000872665, 0.0, 0.0, 0.0, 0.000872665, 0.0, 0.0, 0.0, 0.000872665)",0.915318825915,1.14155454308,-0.389241544604,"(0.003, 0.0, 0.0, 0.0, 0.003, 0.0, 0.0, 0.0, 0.003)"
2022/03/09/18:20:12.689310,4469,1646846412,687217213,imu_iphone,0.0282500928516,0.0742799834794,-0.880212093952,0.4678793498,"(0.00872665, 0.0, 0.0, 0.0, 0.00872665, 0.0, 0.0, 0.0, 0.00872665)",0.376330345869,0.222741290927,0.625281989574,"(0.000872665, 0.0, 0.0, 0.0, 0.000872665, 0.0, 0.0, 0.0, 0.000872665)",0.836655502841,1.26135609806,-0.378232406974,"(0.003, 0.0, 0.0, 0.0, 0.003, 0.0, 0.0, 0.0, 0.003)"
2022/03/09/18:20:12.712535,4470,1646846412,710697143,imu_iphone,0.0324212374601,0.074731506938,-0.87545377831,0.476387182107,"(0.00872665, 0.0, 0.0, 0.0, 0.00872665, 0.0, 0.0, 0.0, 0.00872665)",0.343469321728,0.224022001028,0.598221838474,"(0.000872665, 0.0, 0.0, 0.0, 0.000872665, 0.0, 0.0, 0.0, 0.000872665)",0.73180308558,1.40371548012,-0.354729523659,"(0.003, 0.0, 0.0, 0.0, 0.003, 0.0, 0.0, 0.0, 0.003)"
2022/03/09/18:20:12.743319,4471,1646846412,740785953,imu_iphone,0.0363221076604,0.0750398154894,-0.87085641496,0.484415973219,"(0.00872665, 0.0, 0.0, 0.0, 0.00872665, 0.0, 0.0, 0.0, 0.00872665)",0.311108618975,0.231034561992,0.566950082779,"(0.000872665, 0.0, 0.0, 0.0, 0.000872665, 0.0, 0.0, 0.0, 0.000872665)",0.648330866173,1.52585343629,-0.324672496319,"(0.003, 0.0, 0.0, 0.0, 0.003, 0.0, 0.0, 0.0, 0.003)"
2022/03/09/18:20:12.772486,4472,1646846412,770204761,imu_iphone,0.0399003254905,0.0751793960356,-0.86650388027,0.49186080136,"(0.00872665, 0.0, 0.0, 0.0, 0.00872665, 0.0, 0.0, 0.0, 0.00872665)",0.27522572875,0.229238823056,0.532587409019,"(0.000872665, 0.0, 0.0, 0.0, 0.000872665, 0.0, 0.0, 0.0, 0.000872665)",0.562097372264,1.62657830402,-0.302892202735,"(0.003, 0.0, 0.0, 0.0, 0.003, 0.0, 0.0, 0.0, 0.003)"
2022/03/09/18:20:12.801629,4473,1646846412,801137746,imu_iphone,0.0431276628304,0.0750805250237,-0.86245253817,0.498676787974,"(0.00872665, 0.0, 0.0, 0.0, 0.00872665, 0.0, 0.0, 0.0, 0.00872665)",0.237183064222,0.231014892459,0.487947970629,"(0.000872665, 0.0, 0.0, 0.0, 0.000872665, 0.0, 0.0, 0.0, 0.000872665)",0.494933329672,1.71883801147,-0.281213650703,"(0.003, 0.0, 0.0, 0.0, 0.003, 0.0, 0.0, 0.0, 0.003)"
2022/03/09/18:20:12.832361,4474,1646846412,829941501,imu_iphone,0.0460062380114,0.0747293095206,-0.858752429896,0.504819988224,"(0.00872665, 0.0, 0.0, 0.0, 0.00872665, 0.0, 0.0, 0.0, 0.00872665)",0.19601790607,0.227573022246,0.441564410925,"(0.000872665, 0.0, 0.0, 0.0, 0.000872665, 0.0, 0.0, 0.0, 0.000872665)",0.432641771883,1.79582391456,-0.263809998035,"(0.003, 0.0, 0.0, 0.0, 0.003, 0.0, 0.0, 0.0, 0.003)"
2022/03/09/18:20:12.862304,4475,1646846412,860027894,imu_iphone,0.0485148677942,0.0740473060138,-0.855476699021,0.510218503689,"(0.00872665, 0.0, 0.0, 0.0, 0.00872665, 0.0, 0.0, 0.0, 0.00872665)",0.150467544794,0.227658629417,0.387167215347,"(0.000872665, 0.0, 0.0, 0.0, 0.000872665, 0.0, 0.0, 0.0, 0.000872665)",0.378023807555,1.84414457381,-0.255843166709,"(0.003, 0.0, 0.0, 0.0, 0.003, 0.0, 0.0, 0.0, 0.003)"
2022/03/09/18:20:12.889621,4476,1646846412,889139129,imu_iphone,0.0506840749497,0.0729738028059,-0.852703882363,0.514783486189,"(0.00872665, 0.0, 0.0, 0.0, 0.00872665, 0.0, 0.0, 0.0, 0.00872665)",0.110844880342,0.229150533676,0.323621422052,"(0.000872665, 0.0, 0.0, 0.0, 0.000872665, 0.0, 0.0, 0.0, 0.000872665)",0.327985017076,1.8816687879,-0.235563268661,"(0.003, 0.0, 0.0, 0.0, 0.003, 0.0, 0.0, 0.0, 0.003)"
2022/03/09/18:20:12.924105,4477,1646846412,922740552,imu_iphone,0.052568293272,0.0714287951064,-0.850505425222,0.518435168021,"(0.00872665, 0.0, 0.0, 0.0, 0.00872665, 0.0, 0.0, 0.0, 0.00872665)",0.063738361001,0.228629887104,0.255041837692,"(0.000872665, 0.0, 0.0, 0.0, 0.000872665, 0.0, 0.0, 0.0, 0.000872665)",0.289730924293,1.89789276481,-0.224824272394,"(0.003, 0.0, 0.0, 0.0, 0.003, 0.0, 0.0, 0.0, 0.003)"
2022/03/09/18:20:12.951331,4478,1646846412,949520496,imu_iphone,0.0541924495275,0.0693235074037,-0.848949458685,0.521097156329,"(0.00872665, 0.0, 0.0, 0.0, 0.00872665, 0.0, 0.0, 0.0, 0.00872665)",0.0196115616709,0.238484442234,0.181342065334,"(0.000872665, 0.0, 0.0, 0.0, 0.000872665, 0.0, 0.0, 0.0, 0.000872665)",0.256933526248,1.91123494148,-0.222112918496,"(0.003, 0.0, 0.0, 0.0, 0.003, 0.0, 0.0, 0.0, 0.003)"
2022/03/09/18:20:12.980890,4479,1646846412,978763119,imu_iphone,0.0555990379319,0.0666046200627,-0.848063496126,0.52274360647,"(0.00872665, 0.0, 0.0, 0.0, 0.00872665, 0.0, 0.0, 0.0, 0.00872665)",-0.0248687714338,0.243682548404,0.102925881743,"(0.000872665, 0.0, 0.0, 0.0, 0.000872665, 0.0, 0.0, 0.0, 0.000872665)",0.21975908529,1.88125670537,-0.224777494669,"(0.003, 0.0, 0.0, 0.0, 0.003, 0.0, 0.0, 0.0, 0.003)"
2022/03/09/18:20:13.008683,4480,1646846413,8168043,imu_iphone,0.0567812136038,0.0632500772753,-0.847855857276,0.523369627308,"(0.00872665, 0.0, 0.0, 0.0, 0.00872665, 0.0, 0.0, 0.0, 0.00872665)",-0.0647597536445,0.258093267679,0.0280509367585,"(0.000872665, 0.0, 0.0, 0.0, 0.000872665, 0.0, 0.0, 0.0, 0.000872665)",0.167029442713,1.8597328122,-0.210904390812,"(0.003, 0.0, 0.0, 0.0, 0.003, 0.0, 0.0, 0.0, 0.003)"
2022/03/09/18:20:13.042064,4481,1646846413,41437512,imu_iphone,0.0577429417992,0.0592342576372,-0.848302709312,0.523010103887,"(0.00872665, 0.0, 0.0, 0.0, 0.00872665, 0.0, 0.0, 0.0, 0.00872665)",-0.107260577381,0.266462504864,-0.0445580855012,"(0.000872665, 0.0, 0.0, 0.0, 0.000872665, 0.0, 0.0, 0.0, 0.000872665)",0.102654046901,1.81706948027,-0.23290278554,"(0.003, 0.0, 0.0, 0.0, 0.003, 0.0, 0.0, 0.0, 0.003)"
2022/03/09/18:20:13.069133,4482,1646846413,68452172,imu_iphone,0.0584441178564,0.0545828523197,-0.84934025889,0.521752931903,"(0.00872665, 0.0, 0.0, 0.0, 0.00872665, 0.0, 0.0, 0.0, 0.00872665)",-0.150647506118,0.277574658394,-0.109138093889,"(0.000872665, 0.0, 0.0, 0.0, 0.000872665, 0.0, 0.0, 0.0, 0.000872665)",0.0283788399026,1.75645358831,-0.232047922611,"(0.003, 0.0, 0.0, 0.0, 0.003, 0.0, 0.0, 0.0, 0.003)"
2022/03/09/18:20:13.100756,4483,1646846413,97756240,imu_iphone,0.0588287757268,0.0493398472148,-0.850872273973,0.519731784681,"(0.00872665, 0.0, 0.0, 0.0, 0.00872665, 0.0, 0.0, 0.0, 0.00872665)",-0.189914911985,0.284941703081,-0.165871396661,"(0.000872665, 0.0, 0.0, 0.0, 0.000872665, 0.0, 0.0, 0.0, 0.000872665)",-0.0709380731173,1.68999311194,-0.253078603148,"(0.003, 0.0, 0.0, 0.0, 0.003, 0.0, 0.0, 0.0, 0.003)"
2022/03/09/18:20:13.129018,4484,1646846413,128488792,imu_iphone,0.0588166008827,0.0435401539637,-0.852825442275,0.51704315822,"(0.00872665, 0.0, 0.0, 0.0, 0.00872665, 0.0, 0.0, 0.0, 0.00872665)",-0.228690966964,0.294031441212,-0.212959125638,"(0.000872665, 0.0, 0.0, 0.0, 0.000872665, 0.0, 0.0, 0.0, 0.000872665)",-0.180077723712,1.61429081887,-0.256851811409,"(0.003, 0.0, 0.0, 0.0, 0.003, 0.0, 0.0, 0.0, 0.003)"
2022/03/09/18:20:13.164406,4485,1646846413,163879154,imu_iphone,0.0583521206333,0.0373090261191,-0.855079299024,0.513850619313,"(0.00872665, 0.0, 0.0, 0.0, 0.00872665, 0.0, 0.0, 0.0, 0.00872665)",-0.266286224127,0.291234821081,-0.253256112337,"(0.000872665, 0.0, 0.0, 0.0, 0.000872665, 0.0, 0.0, 0.0, 0.000872665)",-0.31743327789,1.53187548369,-0.278532117605,"(0.003, 0.0, 0.0, 0.0, 0.003, 0.0, 0.0, 0.0, 0.003)"
2022/03/09/18:20:13.188368,4486,1646846413,187860155,imu_iphone,0.0573513045426,0.0307385187462,-0.857545878133,0.510275453289,"(0.00872665, 0.0, 0.0, 0.0, 0.00872665, 0.0, 0.0, 0.0, 0.00872665)",-0.30211108923,0.287021696568,-0.283295929432,"(0.000872665, 0.0, 0.0, 0.0, 0.000872665, 0.0, 0.0, 0.0, 0.000872665)",-0.453078704216,1.42641013205,-0.297425640821,"(0.003, 0.0, 0.0, 0.0, 0.003, 0.0, 0.0, 0.0, 0.003)"
2022/03/09/18:20:13.220406,4487,1646846413,218682974,imu_iphone,0.0557477315307,0.0239761391526,-0.860137773306,0.506438886849,"(0.00872665, 0.0, 0.0, 0.0, 0.00872665, 0.0, 0.0, 0.0, 0.00872665)",-0.33620724082,0.274112910032,-0.304947525263,"(0.000872665, 0.0, 0.0, 0.0, 0.000872665, 0.0, 0.0, 0.0, 0.000872665)",-0.614542365074,1.31045429081,-0.312803233266,"(0.003, 0.0, 0.0, 0.0, 0.003, 0.0, 0.0, 0.0, 0.003)"
2022/03/09/18:20:13.248377,4488,1646846413,247863472,imu_iphone,0.0534997363456,0.0171671623681,-0.862814721617,0.502388119793,"(0.00872665, 0.0, 0.0, 0.0, 0.00872665, 0.0, 0.0, 0.0, 0.00872665)",-0.369761914015,0.251977175474,-0.327478677034,"(0.000872665, 0.0, 0.0, 0.0, 0.000872665, 0.0, 0.0, 0.0, 0.000872665)",-0.768720724136,1.16633972079,-0.336318395734,"(0.003, 0.0, 0.0, 0.0, 0.003, 0.0, 0.0, 0.0, 0.003)"
2022/03/09/18:20:13.285676,4489,1646846413,281588178,imu_iphone,0.0505875090179,0.0104618811195,-0.865542596309,0.498164096407,"(0.00872665, 0.0, 0.0, 0.0, 0.00872665, 0.0, 0.0, 0.0, 0.00872665)",-0.392720252275,0.227660119534,-0.349734723568,"(0.000872665, 0.0, 0.0, 0.0, 0.000872665, 0.0, 0.0, 0.0, 0.000872665)",-0.914336566776,1.01117435172,-0.346195512414,"(0.003, 0.0, 0.0, 0.0, 0.003, 0.0, 0.0, 0.0, 0.003)"
2022/03/09/18:20:13.309028,4490,1646846413,307422547,imu_iphone,0.047002039276,0.00397099286243,-0.868371759668,0.493665399366,"(0.00872665, 0.0, 0.0, 0.0, 0.00872665, 0.0, 0.0, 0.0, 0.00872665)",-0.415294736624,0.193609714508,-0.379756182432,"(0.000872665, 0.0, 0.0, 0.0, 0.000872665, 0.0, 0.0, 0.0, 0.000872665)",-1.07032390818,0.858566116244,-0.353958275914,"(0.003, 0.0, 0.0, 0.0, 0.003, 0.0, 0.0, 0.0, 0.003)"
2022/03/09/18:20:13.338125,4491,1646846413,336392007,imu_iphone,0.0427667566932,-0.00216133372304,-0.871274198476,0.488924947438,"(0.00872665, 0.0, 0.0, 0.0, 0.00872665, 0.0, 0.0, 0.0, 0.00872665)",-0.4361718297,0.156918033957,-0.405736744404,"(0.000872665, 0.0, 0.0, 0.0, 0.000872665, 0.0, 0.0, 0.0, 0.000872665)",-1.16001427598,0.663934818953,-0.369034152031,"(0.003, 0.0, 0.0, 0.0, 0.003, 0.0, 0.0, 0.0, 0.003)"
2022/03/09/18:20:13.371731,4492,1646846413,370142994,imu_iphone,0.0379086576047,-0.00782266855613,-0.874228047871,0.483970102228,"(0.00872665, 0.0, 0.0, 0.0, 0.00872665, 0.0, 0.0, 0.0, 0.00872665)",-0.447994440794,0.112432621419,-0.427418738604,"(0.000872665, 0.0, 0.0, 0.0, 0.000872665, 0.0, 0.0, 0.0, 0.000872665)",-1.22686585799,0.4707107272,-0.353920853734,"(0.003, 0.0, 0.0, 0.0, 0.003, 0.0, 0.0, 0.0, 0.003)"
2022/03/09/18:20:13.402734,4493,1646846413,400992692,imu_iphone,0.0324817327775,-0.0129076385049,-0.877250484171,0.478758726214,"(0.00872665, 0.0, 0.0, 0.0, 0.00872665, 0.0, 0.0, 0.0, 0.00872665)",-0.451503068209,0.0706613212824,-0.450176000595,"(0.000872665, 0.0, 0.0, 0.0, 0.000872665, 0.0, 0.0, 0.0, 0.000872665)",-1.26643455103,0.277652038559,-0.385766544342,"(0.003, 0.0, 0.0, 0.0, 0.003, 0.0, 0.0, 0.0, 0.003)"
2022/03/09/18:20:13.428566,4494,1646846413,426814422,imu_iphone,0.026573818169,-0.0173536675208,-0.880379618765,0.473206518631,"(0.00872665, 0.0, 0.0, 0.0, 0.00872665, 0.0, 0.0, 0.0, 0.00872665)",-0.453677535057,0.0271201562136,-0.479493647814,"(0.000872665, 0.0, 0.0, 0.0, 0.000872665, 0.0, 0.0, 0.0, 0.000872665)",-1.27844911739,0.0883289898187,-0.372879281044,"(0.003, 0.0, 0.0, 0.0, 0.003, 0.0, 0.0, 0.0, 0.003)"
2022/03/09/18:20:13.472237,4495,1646846413,471737299,imu_iphone,0.0202552572425,-0.0211347899474,-0.883618217668,0.467292082763,"(0.00872665, 0.0, 0.0, 0.0, 0.00872665, 0.0, 0.0, 0.0, 0.00872665)",-0.454289495945,-0.0101956389844,-0.506111741066,"(0.000872665, 0.0, 0.0, 0.0, 0.000872665, 0.0, 0.0, 0.0, 0.000872665)",-1.27540768817,-0.0842107958347,-0.382652317286,"(0.003, 0.0, 0.0, 0.0, 0.003, 0.0, 0.0, 0.0, 0.003)"
2022/03/09/18:20:13.488393,4496,1646846413,486905545,imu_iphone,0.0136157431972,-0.024233328061,-0.88696439371,0.461000565768,"(0.00872665, 0.0, 0.0, 0.0, 0.00872665, 0.0, 0.0, 0.0, 0.00872665)",-0.446271836758,-0.0493008419871,-0.529148221016,"(0.000872665, 0.0, 0.0, 0.0, 0.000872665, 0.0, 0.0, 0.0, 0.000872665)",-1.22669935852,-0.260813464466,-0.360041719079,"(0.003, 0.0, 0.0, 0.0, 0.003, 0.0, 0.0, 0.0, 0.003)"
2022/03/09/18:20:13.518242,4497,1646846413,515180506,imu_iphone,0.00672597967058,-0.0266305521027,-0.890416276823,0.454317541882,"(0.00872665, 0.0, 0.0, 0.0, 0.00872665, 0.0, 0.0, 0.0, 0.00872665)",-0.436558574438,-0.0814178809524,-0.551549077034,"(0.000872665, 0.0, 0.0, 0.0, 0.000872665, 0.0, 0.0, 0.0, 0.000872665)",-1.16151591405,-0.426587455161,-0.380790563822,"(0.003, 0.0, 0.0, 0.0, 0.003, 0.0, 0.0, 0.0, 0.003)"
2022/03/09/18:20:13.547045,4498,1646846413,545218358,imu_iphone,-0.000318987694319,-0.0283193912518,-0.893959214489,0.447252538457,"(0.00872665, 0.0, 0.0, 0.0, 0.00872665, 0.0, 0.0, 0.0, 0.00872665)",-0.422569066286,-0.111770235002,-0.575039923191,"(0.000872665, 0.0, 0.0, 0.0, 0.000872665, 0.0, 0.0, 0.0, 0.000872665)",-1.08832302667,-0.581470367163,-0.370349190831,"(0.003, 0.0, 0.0, 0.0, 0.003, 0.0, 0.0, 0.0, 0.003)"
2022/03/09/18:20:13.577252,4499,1646846413,574335981,imu_iphone,-0.00743455090122,-0.0293160931833,-0.897582136722,0.439808596973,"(0.00872665, 0.0, 0.0, 0.0, 0.00872665, 0.0, 0.0, 0.0, 0.00872665)",-0.409071981907,-0.139173939824,-0.593421280384,"(0.000872665, 0.0, 0.0, 0.0, 0.000872665, 0.0, 0.0, 0.0, 0.000872665)",-1.0198899921,-0.747042318285,-0.369415390491,"(0.003, 0.0, 0.0, 0.0, 0.003, 0.0, 0.0, 0.0, 0.003)"
