time,.header.seq,.header.stamp.secs,.header.stamp.nsecs,.header.frame_id,.orientation.x,.orientation.y,.orientation.z,.orientation.w,.orientation_covariance,.angular_velocity.x,.angular_velocity.y,.angular_velocity.z,.angular_velocity_covariance,.linear_acceleration.x,.linear_acceleration.y,.linear_acceleration.z,.linear_acceleration_covariance
2022/03/09/18:25:45.038592,15471,1646846745,38097350,imu_iphone,0.00282721869534,0.0210016566253,-0.905546255197,0.423717968645,"(0.00872665, 0.0, 0.0, 0.0, 0.00872665, 0.0, 0.0, 0.0, 0.00872665)",-0.00262207351625,-0.00247259624302,0.000171695835888,"(0.000872665, 0.0, 0.0, 0.0, 0.000872665, 0.0, 0.0, 0.0, 0.000872665)",-0.00124209478498,0.00118888512254,-0.118233039379,"(0.003, 0.0, 0.0, 0.0, 0.003, 0.0, 0.0, 0.0, 0.003)"
2022/03/09/18:25:45.072413,15472,1646846745,67424789,imu_iphone,0.00282208575533,0.0210070814793,-0.905547227988,0.423715654943,"(0.00872665, 0.0, 0.0, 0.0, 0.00872665, 0.0, 0.0, 0.0, 0.00872665)",0.00122530246153,0.000246270559728,-0.00099341198802,"(0.000872665, 0.0, 0.0, 0.0, 0.000872665, 0.0, 0.0, 0.0, 0.000872665)",0.00443599015474,-0.00289970733225,-0.121530284286,"(0.003, 0.0, 0.0, 0.0, 0.003, 0.0, 0.0, 0.0, 0.003)"
2022/03/09/18:25:45.107251,15473,1646846745,105867841,imu_iphone,0.00283080315185,0.021005713095,-0.905545628114,0.423719083798,"(0.00872665, 0.0, 0.0, 0.0, 0.00872665, 0.0, 0.0, 0.0, 0.00872665)",-0.00057518016547,0.00111429113895,-0.00130707258359,"(0.000872665, 0.0, 0.0, 0.0, 0.000872665, 0.0, 0.0, 0.0, 0.000872665)",0.00478740781546,0.00472955692559,-0.113446508646,"(0.003, 0.0, 0.0, 0.0, 0.003, 0.0, 0.0, 0.0, 0.003)"
2022/03/09/18:25:45.127475,15474,1646846745,127113858,imu_iphone,0.00285043141878,0.0210121332411,-0.905550844892,0.423707484727,"(0.00872665, 0.0, 0.0, 0.0, 0.00872665, 0.0, 0.0, 0.0, 0.00872665)",0.00105433119461,0.00241892412305,-0.00121120177209,"(0.000872665, 0.0, 0.0, 0.0, 0.000872665, 0.0, 0.0, 0.0, 0.000872665)",0.0107286540046,0.00482780842111,-0.108664070964,"(0.003, 0.0, 0.0, 0.0, 0.003, 0.0, 0.0, 0.0, 0.003)"
2022/03/09/18:25:45.158902,15475,1646846745,158677241,imu_iphone,0.00284748572934,0.0210024756004,-0.905556643254,0.423695590845,"(0.00872665, 0.0, 0.0, 0.0, 0.00872665, 0.0, 0.0, 0.0, 0.00872665)",-0.00137948617339,-0.000377862714231,-0.000851492397487,"(0.000872665, 0.0, 0.0, 0.0, 0.000872665, 0.0, 0.0, 0.0, 0.000872665)",-4.32693958282e-05,0.00723530810326,-0.125870087743,"(0.003, 0.0, 0.0, 0.0, 0.003, 0.0, 0.0, 0.0, 0.003)"
2022/03/09/18:25:45.187986,15476,1646846745,187627875,imu_iphone,0.00284561351225,0.0210115889635,-0.905561779558,0.423684173669,"(0.00872665, 0.0, 0.0, 0.0, 0.00872665, 0.0, 0.0, 0.0, 0.00872665)",0.000479067675769,0.000328374095261,0.000338841229677,"(0.000872665, 0.0, 0.0, 0.0, 0.000872665, 0.0, 0.0, 0.0, 0.000872665)",0.000885378085077,-0.0024563787505,-0.117644224763,"(0.003, 0.0, 0.0, 0.0, 0.003, 0.0, 0.0, 0.0, 0.003)"
2022/03/09/18:25:45.216464,15477,1646846745,216216272,imu_iphone,0.00284185281034,0.0210319688265,-0.905569041828,0.423667665326,"(0.00872665, 0.0, 0.0, 0.0, 0.00872665, 0.0, 0.0, 0.0, 0.00872665)",-0.00119465682656,-0.00149630475789,-0.000552676618099,"(0.000872665, 0.0, 0.0, 0.0, 0.000872665, 0.0, 0.0, 0.0, 0.000872665)",0.000384564064443,0.00736959306523,-0.113319624066,"(0.003, 0.0, 0.0, 0.0, 0.003, 0.0, 0.0, 0.0, 0.003)"
2022/03/09/18:25:45.252016,15478,1646846745,251604820,imu_iphone,0.00285585704473,0.0210357536245,-0.905570344353,0.423664599157,"(0.00872665, 0.0, 0.0, 0.0, 0.00872665, 0.0, 0.0, 0.0, 0.00872665)",0.00400259112939,-0.000309394672513,0.000661223661155,"(0.000872665, 0.0, 0.0, 0.0, 0.000872665, 0.0, 0.0, 0.0, 0.000872665)",0.0130596465245,0.01034308495,-0.117964652181,"(0.003, 0.0, 0.0, 0.0, 0.003, 0.0, 0.0, 0.0, 0.003)"
2022/03/09/18:25:45.279800,15479,1646846745,279010177,imu_iphone,0.00285227789229,0.0210175404599,-0.90556357997,0.423679985527,"(0.00872665, 0.0, 0.0, 0.0, 0.00872665, 0.0, 0.0, 0.0, 0.00872665)",0.000829061493278,0.000450917519629,0.0018017096445,"(0.000872665, 0.0, 0.0, 0.0, 0.000872665, 0.0, 0.0, 0.0, 0.000872665)",0.00767267983407,0.0137265580148,-0.116602250934,"(0.003, 0.0, 0.0, 0.0, 0.003, 0.0, 0.0, 0.0, 0.003)"
2022/03/09/18:25:45.306847,15480,1646846745,305676719,imu_iphone,0.00285556034685,0.0210036835588,-0.905558182396,0.423692187028,"(0.00872665, 0.0, 0.0, 0.0, 0.00872665, 0.0, 0.0, 0.0, 0.00872665)",8.67825001478e-05,-0.000424251891673,0.000732337590307,"(0.000872665, 0.0, 0.0, 0.0, 0.000872665, 0.0, 0.0, 0.0, 0.000872665)",-0.00727316882461,0.0088843873702,-0.126171219349,"(0.003, 0.0, 0.0, 0.0, 0.003, 0.0, 0.0, 0.0, 0.003)"
2022/03/09/18:25:45.339439,15481,1646846745,335632672,imu_iphone,0.00285594985284,0.0210158047264,-0.905555572498,0.42369716145,"(0.00872665, 0.0, 0.0, 0.0, 0.00872665, 0.0, 0.0, 0.0, 0.00872665)",-0.00129330903292,0.000754896551371,-0.000221468508244,"(0.000872665, 0.0, 0.0, 0.0, 0.000872665, 0.0, 0.0, 0.0, 0.000872665)",0.00655926033854,0.00764676935971,-0.116301704049,"(0.003, 0.0, 0.0, 0.0, 0.003, 0.0, 0.0, 0.0, 0.003)"
2022/03/09/18:25:45.367924,15482,1646846745,366824908,imu_iphone,0.00286184051323,0.0210151905466,-0.905558131819,0.42369168216,"(0.00872665, 0.0, 0.0, 0.0, 0.00872665, 0.0, 0.0, 0.0, 0.00872665)",-4.47994098067e-05,0.000238905660808,0.000400386285037,"(0.000872665, 0.0, 0.0, 0.0, 0.000872665, 0.0, 0.0, 0.0, 0.000872665)",0.0115901315957,0.0108876799978,-0.121691082716,"(0.003, 0.0, 0.0, 0.0, 0.003, 0.0, 0.0, 0.0, 0.003)"
2022/03/09/18:25:45.400518,15483,1646846745,399436963,imu_iphone,0.00285571906568,0.0210178709521,-0.90556145333,0.423684491352,"(0.00872665, 0.0, 0.0, 0.0, 0.00872665, 0.0, 0.0, 0.0, 0.00872665)",-0.00138971209526,0.00104124005884,6.12726435065e-05,"(0.000872665, 0.0, 0.0, 0.0, 0.000872665, 0.0, 0.0, 0.0, 0.000872665)",0.00211036976427,0.00810402162373,-0.11555501461,"(0.003, 0.0, 0.0, 0.0, 0.003, 0.0, 0.0, 0.0, 0.003)"
2022/03/09/18:25:45.425325,15484,1646846745,424852442,imu_iphone,0.0028627336618,0.0210191179995,-0.905567195903,0.42367210805,"(0.00872665, 0.0, 0.0, 0.0, 0.00872665, 0.0, 0.0, 0.0, 0.00872665)",-0.0022331494838,-0.000384851358831,-0.0009446865879,"(0.000872665, 0.0, 0.0, 0.0, 0.000872665, 0.0, 0.0, 0.0, 0.000872665)",-0.00361091148108,0.0086832979694,-0.113161749244,"(0.003, 0.0, 0.0, 0.0, 0.003, 0.0, 0.0, 0.0, 0.003)"
2022/03/09/18:25:45.455446,15485,1646846745,454547758,imu_iphone,0.0028591137898,0.0210232825717,-0.905574749997,0.423655779171,"(0.00872665, 0.0, 0.0, 0.0, 0.00872665, 0.0, 0.0, 0.0, 0.00872665)",-0.000174061395228,-0.000102932564914,-0.000980861485004,"(0.000872665, 0.0, 0.0, 0.0, 0.000872665, 0.0, 0.0, 0.0, 0.000872665)",0.0066760584712,0.00550381964073,-0.117057164311,"(0.003, 0.0, 0.0, 0.0, 0.003, 0.0, 0.0, 0.0, 0.003)"
2022/03/09/18:25:45.484915,15486,1646846745,484100728,imu_iphone,0.00286197140744,0.0210193495925,-0.905574093641,0.423657358001,"(0.00872665, 0.0, 0.0, 0.0, 0.00872665, 0.0, 0.0, 0.0, 0.00872665)",-0.000350564718246,0.00347080081701,0.00169697776437,"(0.000872665, 0.0, 0.0, 0.0, 0.000872665, 0.0, 0.0, 0.0, 0.000872665)",0.00987521633506,0.00627095606178,-0.121694591045,"(0.003, 0.0, 0.0, 0.0, 0.003, 0.0, 0.0, 0.0, 0.003)"
2022/03/09/18:25:45.515291,15487,1646846745,514328307,imu_iphone,0.00285329887738,0.0210014523005,-0.905572218474,0.423662312242,"(0.00872665, 0.0, 0.0, 0.0, 0.00872665, 0.0, 0.0, 0.0, 0.00872665)",-0.00162007659674,0.00130321178585,0.000649406574667,"(0.000872665, 0.0, 0.0, 0.0, 0.000872665, 0.0, 0.0, 0.0, 0.000872665)",0.00064692132175,0.000132183618844,-0.115242188573,"(0.003, 0.0, 0.0, 0.0, 0.003, 0.0, 0.0, 0.0, 0.003)"
2022/03/09/18:25:45.544228,15488,1646846745,543957562,imu_iphone,0.00284718847341,0.0209992213375,-0.905567254879,0.423673073386,"(0.00872665, 0.0, 0.0, 0.0, 0.00872665, 0.0, 0.0, 0.0, 0.00872665)",0.00102547369897,-0.00124780554324,0.00340169016272,"(0.000872665, 0.0, 0.0, 0.0, 0.000872665, 0.0, 0.0, 0.0, 0.000872665)",0.000206370167434,0.00195518100634,-0.126016852856,"(0.003, 0.0, 0.0, 0.0, 0.003, 0.0, 0.0, 0.0, 0.003)"
2022/03/09/18:25:45.574201,15489,1646846745,573891654,imu_iphone,0.00285418108558,0.0209879415114,-0.905553923366,0.423702079105,"(0.00872665, 0.0, 0.0, 0.0, 0.00872665, 0.0, 0.0, 0.0, 0.00872665)",-0.000403304584324,0.0020070169121,0.00227618170902,"(0.000872665, 0.0, 0.0, 0.0, 0.000872665, 0.0, 0.0, 0.0, 0.000872665)",-0.000807719752192,0.00903223056346,-0.118075164557,"(0.003, 0.0, 0.0, 0.0, 0.003, 0.0, 0.0, 0.0, 0.003)"
2022/03/09/18:25:45.606788,15490,1646846745,606119952,imu_iphone,0.00284688569586,0.0209665634318,-0.90555073158,0.423710008137,"(0.00872665, 0.0, 0.0, 0.0, 0.00872665, 0.0, 0.0, 0.0, 0.00872665)",0.00113388709724,0.00465246476233,0.000597036443651,"(0.000872665, 0.0, 0.0, 0.0, 0.000872665, 0.0, 0.0, 0.0, 0.000872665)",0.00141604945064,0.00408764228225,-0.113116725683,"(0.003, 0.0, 0.0, 0.0, 0.003, 0.0, 0.0, 0.0, 0.003)"
2022/03/09/18:25:45.637807,15491,1646846745,634364918,imu_iphone,0.00285632654621,0.0209577897198,-0.905549807414,0.423712353774,"(0.00872665, 0.0, 0.0, 0.0, 0.00872665, 0.0, 0.0, 0.0, 0.00872665)",0.00321798305959,0.0034748474136,0.000513746868819,"(0.000872665, 0.0, 0.0, 0.0, 0.000872665, 0.0, 0.0, 0.0, 0.000872665)",-0.00091443143785,0.00118959775195,-0.124336947799,"(0.003, 0.0, 0.0, 0.0, 0.003, 0.0, 0.0, 0.0, 0.003)"
2022/03/09/18:25:45.667255,15492,1646846745,663234422,imu_iphone,0.0028620191685,0.0209585015882,-0.905557629003,0.423695563598,"(0.00872665, 0.0, 0.0, 0.0, 0.00872665, 0.0, 0.0, 0.0, 0.00872665)",0.00113116437569,-0.000157028436661,-0.000601524952799,"(0.000872665, 0.0, 0.0, 0.0, 0.000872665, 0.0, 0.0, 0.0, 0.000872665)",-0.00214245636016,0.0029367457889,-0.121194654107,"(0.003, 0.0, 0.0, 0.0, 0.003, 0.0, 0.0, 0.0, 0.003)"
2022/03/09/18:25:45.696626,15493,1646846745,693037274,imu_iphone,0.00286344766225,0.0209652119089,-0.905562349431,0.423685132912,"(0.00872665, 0.0, 0.0, 0.0, 0.00872665, 0.0, 0.0, 0.0, 0.00872665)",0.000278293155134,-0.000568165443838,-0.00168265448883,"(0.000872665, 0.0, 0.0, 0.0, 0.000872665, 0.0, 0.0, 0.0, 0.000872665)",-0.00562513109297,0.00211574189365,-0.123595520854,"(0.003, 0.0, 0.0, 0.0, 0.003, 0.0, 0.0, 0.0, 0.003)"
2022/03/09/18:25:45.729252,15494,1646846745,724847519,imu_iphone,0.00287529757365,0.0209841183785,-0.905571834475,0.423663843213,"(0.00872665, 0.0, 0.0, 0.0, 0.00872665, 0.0, 0.0, 0.0, 0.00872665)",0.00265241554007,-0.000412031076849,-0.00343539845198,"(0.000872665, 0.0, 0.0, 0.0, 0.000872665, 0.0, 0.0, 0.0, 0.000872665)",0.00165271550417,0.00681617237628,-0.111936757565,"(0.003, 0.0, 0.0, 0.0, 0.003, 0.0, 0.0, 0.0, 0.003)"
2022/03/09/18:25:45.752873,15495,1646846745,752490881,imu_iphone,0.00289284218168,0.0209918436042,-0.90557801324,0.423650133839,"(0.00872665, 0.0, 0.0, 0.0, 0.00872665, 0.0, 0.0, 0.0, 0.00872665)",0.000772902742028,0.000233288854361,-0.00229721702635,"(0.000872665, 0.0, 0.0, 0.0, 0.000872665, 0.0, 0.0, 0.0, 0.000872665)",0.0145206829906,0.00838434079662,-0.118232454658,"(0.003, 0.0, 0.0, 0.0, 0.003, 0.0, 0.0, 0.0, 0.003)"
2022/03/09/18:25:45.784491,15496,1646846745,783344031,imu_iphone,0.00289774031864,0.0209828314938,-0.90558096319,0.42364424107,"(0.00872665, 0.0, 0.0, 0.0, 0.00872665, 0.0, 0.0, 0.0, 0.00872665)",-0.000208150595427,-0.000485047698021,0.000597378704697,"(0.000872665, 0.0, 0.0, 0.0, 0.000872665, 0.0, 0.0, 0.0, 0.000872665)",0.00414260610938,0.00659792505205,-0.125111119151,"(0.003, 0.0, 0.0, 0.0, 0.003, 0.0, 0.0, 0.0, 0.003)"
2022/03/09/18:25:45.812715,15497,1646846745,812404437,imu_iphone,0.00290413352553,0.0209753706451,-0.905570791336,0.423666309392,"(0.00872665, 0.0, 0.0, 0.0, 0.00872665, 0.0, 0.0, 0.0, 0.00872665)",-6.48917630315e-05,-0.000947025604546,5.72106800973e-05,"(0.000872665, 0.0, 0.0, 0.0, 0.000872665, 0.0, 0.0, 0.0, 0.000872665)",-0.000988252535462,0.00890335427597,-0.118518968225,"(0.003, 0.0, 0.0, 0.0, 0.003, 0.0, 0.0, 0.0, 0.003)"
2022/03/09/18:25:45.845856,15498,1646846745,844135375,imu_iphone,0.00289288910684,0.020978072168,-0.905563700288,0.423681409081,"(0.00872665, 0.0, 0.0, 0.0, 0.00872665, 0.0, 0.0, 0.0, 0.00872665)",0.00212485017255,-0.0037239883095,0.000679859425873,"(0.000872665, 0.0, 0.0, 0.0, 0.000872665, 0.0, 0.0, 0.0, 0.000872665)",-0.00474249389023,0.0124740478769,-0.118370448947,"(0.003, 0.0, 0.0, 0.0, 0.003, 0.0, 0.0, 0.0, 0.003)"
2022/03/09/18:25:45.874225,15499,1646846745,871700915,imu_iphone,0.00288398458035,0.0209748974822,-0.905555962329,0.423698165442,"(0.00872665, 0.0, 0.0, 0.0, 0.00872665, 0.0, 0.0, 0.0, 0.00872665)",-9.75299626589e-05,0.000296837650239,0.000356537289917,"(0.000872665, 0.0, 0.0, 0.0, 0.000872665, 0.0, 0.0, 0.0, 0.000872665)",0.0126348828524,2.14336998761e-05,-0.120761960149,"(0.003, 0.0, 0.0, 0.0, 0.003, 0.0, 0.0, 0.0, 0.003)"
2022/03/09/18:25:45.902061,15500,1646846745,901541061,imu_iphone,0.00289738708974,0.0209529374821,-0.905558375668,0.423694002574,"(0.00872665, 0.0, 0.0, 0.0, 0.00872665, 0.0, 0.0, 0.0, 0.00872665)",-0.000245573930442,0.00157637614757,-0.000145584344864,"(0.000872665, 0.0, 0.0, 0.0, 0.000872665, 0.0, 0.0, 0.0, 0.000872665)",0.00794325973839,0.00232077816501,-0.114458076954,"(0.003, 0.0, 0.0, 0.0, 0.003, 0.0, 0.0, 0.0, 0.003)"
2022/03/09/18:25:45.932236,15501,1646846745,931481307,imu_iphone,0.00291365425857,0.0209471307085,-0.905560763905,0.423689073744,"(0.00872665, 0.0, 0.0, 0.0, 0.00872665, 0.0, 0.0, 0.0, 0.00872665)",0.000938369426876,-0.00136364251375,-0.000581708271056,"(0.000872665, 0.0, 0.0, 0.0, 0.000872665, 0.0, 0.0, 0.0, 0.000872665)",-0.00756209436804,0.00615216622129,-0.116101729274,"(0.003, 0.0, 0.0, 0.0, 0.003, 0.0, 0.0, 0.0, 0.003)"
2022/03/09/18:25:45.971069,15502,1646846745,967064451,imu_iphone,0.00290065561053,0.0209511557948,-0.90556354152,0.423683027201,"(0.00872665, 0.0, 0.0, 0.0, 0.00872665, 0.0, 0.0, 0.0, 0.00872665)",-0.000758834183216,0.00018179230392,-0.00365653913468,"(0.000872665, 0.0, 0.0, 0.0, 0.000872665, 0.0, 0.0, 0.0, 0.000872665)",-0.00289042487741,0.00969455564395,-0.121792239547,"(0.003, 0.0, 0.0, 0.0, 0.003, 0.0, 0.0, 0.0, 0.003)"
2022/03/09/18:25:45.993073,15503,1646846745,991075265,imu_iphone,0.0029085857911,0.0209539000176,-0.905583319921,0.423640560953,"(0.00872665, 0.0, 0.0, 0.0, 0.00872665, 0.0, 0.0, 0.0, 0.00872665)",-0.000342020764947,0.00209682900459,-0.00325948186219,"(0.000872665, 0.0, 0.0, 0.0, 0.000872665, 0.0, 0.0, 0.0, 0.000872665)",0.00847930323333,0.0120872545615,-0.116855435371,"(0.003, 0.0, 0.0, 0.0, 0.003, 0.0, 0.0, 0.0, 0.003)"
2022/03/09/18:25:46.023809,15504,1646846746,21645456,imu_iphone,0.00290588784178,0.0209604071553,-0.905590689669,0.423624503462,"(0.00872665, 0.0, 0.0, 0.0, 0.00872665, 0.0, 0.0, 0.0, 0.00872665)",0.000801919959486,-0.00253991829231,-0.000338592100888,"(0.000872665, 0.0, 0.0, 0.0, 0.000872665, 0.0, 0.0, 0.0, 0.000872665)",-6.06648623943e-05,0.00550091430545,-0.115363810658,"(0.003, 0.0, 0.0, 0.0, 0.003, 0.0, 0.0, 0.0, 0.003)"
2022/03/09/18:25:46.050853,15505,1646846746,50422443,imu_iphone,0.00291358346349,0.0209534736085,-0.905590422773,0.423625364158,"(0.00872665, 0.0, 0.0, 0.0, 0.00872665, 0.0, 0.0, 0.0, 0.00872665)",-0.00101287290454,0.000249457545578,-0.00084985466674,"(0.000872665, 0.0, 0.0, 0.0, 0.000872665, 0.0, 0.0, 0.0, 0.000872665)",-0.00144543170929,0.00857415603474,-0.119849209785,"(0.003, 0.0, 0.0, 0.0, 0.003, 0.0, 0.0, 0.0, 0.003)"
2022/03/09/18:25:46.085946,15506,1646846746,85506431,imu_iphone,0.00291432950186,0.020960679962,-0.905587400179,0.423631463911,"(0.00872665, 0.0, 0.0, 0.0, 0.00872665, 0.0, 0.0, 0.0, 0.00872665)",0.000171217136085,-0.00259185954928,0.000671066343784,"(0.000872665, 0.0, 0.0, 0.0, 0.000872665, 0.0, 0.0, 0.0, 0.000872665)",-0.000127725116909,0.00820055549964,-0.124046925902,"(0.003, 0.0, 0.0, 0.0, 0.003, 0.0, 0.0, 0.0, 0.003)"
2022/03/09/18:25:46.110587,15507,1646846746,110010767,imu_iphone,0.00290562802635,0.020970522776,-0.905584697832,0.423636813264,"(0.00872665, 0.0, 0.0, 0.0, 0.00872665, 0.0, 0.0, 0.0, 0.00872665)",-0.00103891547769,-0.000702001154423,-0.000587929505855,"(0.000872665, 0.0, 0.0, 0.0, 0.000872665, 0.0, 0.0, 0.0, 0.000872665)",0.001165898256,0.00154350047931,-0.113426043391,"(0.003, 0.0, 0.0, 0.0, 0.003, 0.0, 0.0, 0.0, 0.003)"
2022/03/09/18:25:46.141121,15508,1646846746,140154707,imu_iphone,0.00290628712464,0.0209877341893,-0.905584068265,0.423637302198,"(0.00872665, 0.0, 0.0, 0.0, 0.00872665, 0.0, 0.0, 0.0, 0.00872665)",0.00202443776652,-0.003348457627,0.000533749349415,"(0.000872665, 0.0, 0.0, 0.0, 0.000872665, 0.0, 0.0, 0.0, 0.000872665)",0.00730379361659,0.00334500934929,-0.118530077934,"(0.003, 0.0, 0.0, 0.0, 0.003, 0.0, 0.0, 0.0, 0.003)"
2022/03/09/18:25:46.170353,15509,1646846746,169736260,imu_iphone,0.00290097077776,0.020980157368,-0.905584088903,0.42363766982,"(0.00872665, 0.0, 0.0, 0.0, 0.00872665, 0.0, 0.0, 0.0, 0.00872665)",-0.000828552991152,0.00230925809592,-0.000383304432034,"(0.000872665, 0.0, 0.0, 0.0, 0.000872665, 0.0, 0.0, 0.0, 0.000872665)",0.00736303322017,0.00977402295917,-0.115978353024,"(0.003, 0.0, 0.0, 0.0, 0.003, 0.0, 0.0, 0.0, 0.003)"
2022/03/09/18:25:46.204941,15510,1646846746,204292483,imu_iphone,0.00289867621914,0.0209664933869,-0.90558571332,0.423634889572,"(0.00872665, 0.0, 0.0, 0.0, 0.00872665, 0.0, 0.0, 0.0, 0.00872665)",-0.000702681951225,0.00262782070786,0.000221062451601,"(0.000872665, 0.0, 0.0, 0.0, 0.000872665, 0.0, 0.0, 0.0, 0.000872665)",-0.00513433042914,0.00467890542001,-0.122403273582,"(0.003, 0.0, 0.0, 0.0, 0.003, 0.0, 0.0, 0.0, 0.003)"
2022/03/09/18:25:46.229602,15511,1646846746,229103453,imu_iphone,0.00292005172776,0.0209598360815,-0.905588423308,0.423629279134,"(0.00872665, 0.0, 0.0, 0.0, 0.00872665, 0.0, 0.0, 0.0, 0.00872665)",-0.000246345996857,-0.000528853386641,-0.00039143441245,"(0.000872665, 0.0, 0.0, 0.0, 0.000872665, 0.0, 0.0, 0.0, 0.000872665)",-0.00542884737253,0.00874345120043,-0.116712178588,"(0.003, 0.0, 0.0, 0.0, 0.003, 0.0, 0.0, 0.0, 0.003)"
2022/03/09/18:25:46.260730,15512,1646846746,259272148,imu_iphone,0.00292671935434,0.0209652540636,-0.905595861262,0.423613064601,"(0.00872665, 0.0, 0.0, 0.0, 0.00872665, 0.0, 0.0, 0.0, 0.00872665)",0.00149230659008,-0.0024084826,-0.000992171932012,"(0.000872665, 0.0, 0.0, 0.0, 0.000872665, 0.0, 0.0, 0.0, 0.000872665)",0.0040464194119,0.00231440104544,-0.123901914954,"(0.003, 0.0, 0.0, 0.0, 0.003, 0.0, 0.0, 0.0, 0.003)"
2022/03/09/18:25:46.289227,15513,1646846746,288755698,imu_iphone,0.00292960346895,0.0209579522875,-0.905604562858,0.423594803309,"(0.00872665, 0.0, 0.0, 0.0, 0.00872665, 0.0, 0.0, 0.0, 0.00872665)",0.0010241298005,-0.00112133286893,-0.0028857383877,"(0.000872665, 0.0, 0.0, 0.0, 0.000872665, 0.0, 0.0, 0.0, 0.000872665)",0.00494513645768,0.0139736576937,-0.11970536828,"(0.003, 0.0, 0.0, 0.0, 0.003, 0.0, 0.0, 0.0, 0.003)"
2022/03/09/18:25:46.320637,15514,1646846746,318980291,imu_iphone,0.00292724717232,0.0209579294386,-0.905609964363,0.423583272644,"(0.00872665, 0.0, 0.0, 0.0, 0.00872665, 0.0, 0.0, 0.0, 0.00872665)",-0.000119183212519,0.00148263666779,-0.000838686712086,"(0.000872665, 0.0, 0.0, 0.0, 0.000872665, 0.0, 0.0, 0.0, 0.000872665)",0.00451814353466,0.00270053654909,-0.119255717397,"(0.003, 0.0, 0.0, 0.0, 0.003, 0.0, 0.0, 0.0, 0.003)"
2022/03/09/18:25:46.348670,15515,1646846746,348353599,imu_iphone,0.00293029491791,0.0209449250262,-0.905607006729,0.423590218076,"(0.00872665, 0.0, 0.0, 0.0, 0.00872665, 0.0, 0.0, 0.0, 0.00872665)",-0.00144230388105,-0.000661567784846,0.00221670838073,"(0.000872665, 0.0, 0.0, 0.0, 0.000872665, 0.0, 0.0, 0.0, 0.000872665)",0.00336200281978,0.00294865949079,-0.11505449295,"(0.003, 0.0, 0.0, 0.0, 0.003, 0.0, 0.0, 0.0, 0.003)"
2022/03/09/18:25:46.379994,15516,1646846746,378186122,imu_iphone,0.00291955216299,0.0209451497268,-0.905602492758,0.423599931573,"(0.00872665, 0.0, 0.0, 0.0, 0.00872665, 0.0, 0.0, 0.0, 0.00872665)",-0.0010906457901,0.00069281924516,0.000544068869203,"(0.000872665, 0.0, 0.0, 0.0, 0.000872665, 0.0, 0.0, 0.0, 0.000872665)",0.00405160881579,6.89788721502e-05,-0.11131110549,"(0.003, 0.0, 0.0, 0.0, 0.003, 0.0, 0.0, 0.0, 0.003)"
2022/03/09/18:25:46.408380,15517,1646846746,407949911,imu_iphone,0.0029194384054,0.0209404209999,-0.905597531046,0.423610773484,"(0.00872665, 0.0, 0.0, 0.0, 0.00872665, 0.0, 0.0, 0.0, 0.00872665)",-0.00129448063672,0.0004140175879,0.00112146232277,"(0.000872665, 0.0, 0.0, 0.0, 0.000872665, 0.0, 0.0, 0.0, 0.000872665)",0.0096540819481,0.000780292656273,-0.12642557323,"(0.003, 0.0, 0.0, 0.0, 0.003, 0.0, 0.0, 0.0, 0.003)"
2022/03/09/18:25:46.443700,15518,1646846746,443301403,imu_iphone,0.00291325061094,0.0209436031377,-0.905597532864,0.423610654881,"(0.00872665, 0.0, 0.0, 0.0, 0.00872665, 0.0, 0.0, 0.0, 0.00872665)",-0.00234805978835,-5.34486025572e-05,-0.000264104921371,"(0.000872665, 0.0, 0.0, 0.0, 0.000872665, 0.0, 0.0, 0.0, 0.000872665)",0.00317573245615,0.00563647834584,-0.121487599611,"(0.003, 0.0, 0.0, 0.0, 0.003, 0.0, 0.0, 0.0, 0.003)"
2022/03/09/18:25:46.468396,15519,1646846746,467614428,imu_iphone,0.00291753093986,0.0209538506736,-0.905595926244,0.423613553283,"(0.00872665, 0.0, 0.0, 0.0, 0.00872665, 0.0, 0.0, 0.0, 0.00872665)",-0.000179631635547,0.000110930763185,-7.99442641437e-05,"(0.000872665, 0.0, 0.0, 0.0, 0.000872665, 0.0, 0.0, 0.0, 0.000872665)",-0.00401334609836,0.00385282175615,-0.120598822832,"(0.003, 0.0, 0.0, 0.0, 0.003, 0.0, 0.0, 0.0, 0.003)"
2022/03/09/18:25:46.498368,15520,1646846746,497296535,imu_iphone,0.00291706424335,0.0209443802854,-0.905595796112,0.423614303034,"(0.00872665, 0.0, 0.0, 0.0, 0.00872665, 0.0, 0.0, 0.0, 0.00872665)",-0.00217730179429,0.00105727463961,0.000258594751358,"(0.000872665, 0.0, 0.0, 0.0, 0.000872665, 0.0, 0.0, 0.0, 0.000872665)",0.0097432519868,0.00421520294622,-0.134212310314,"(0.003, 0.0, 0.0, 0.0, 0.003, 0.0, 0.0, 0.0, 0.003)"
2022/03/09/18:25:46.528626,15521,1646846746,527301459,imu_iphone,0.00292932830679,0.0209289292,-0.905598533291,0.423609130519,"(0.00872665, 0.0, 0.0, 0.0, 0.00872665, 0.0, 0.0, 0.0, 0.00872665)",-0.000629587098956,0.00177664868534,-0.000850880052894,"(0.000872665, 0.0, 0.0, 0.0, 0.000872665, 0.0, 0.0, 0.0, 0.000872665)",0.00652406740934,0.00235675681382,-0.113693845868,"(0.003, 0.0, 0.0, 0.0, 0.003, 0.0, 0.0, 0.0, 0.003)"
2022/03/09/18:25:46.559651,15522,1646846746,558622637,imu_iphone,0.00294238887345,0.0209123901763,-0.905605760334,0.423594406403,"(0.00872665, 0.0, 0.0, 0.0, 0.00872665, 0.0, 0.0, 0.0, 0.00872665)",-0.000478541478515,0.0010593328625,-0.00191430095583,"(0.000872665, 0.0, 0.0, 0.0, 0.000872665, 0.0, 0.0, 0.0, 0.000872665)",-0.00345457155257,0.0031942060031,-0.122812578678,"(0.003, 0.0, 0.0, 0.0, 0.003, 0.0, 0.0, 0.0, 0.003)"
2022/03/09/18:25:46.587294,15523,1646846746,586800855,imu_iphone,0.00293725519154,0.0209286722851,-0.905604955151,0.423595359293,"(0.00872665, 0.0, 0.0, 0.0, 0.00872665, 0.0, 0.0, 0.0, 0.00872665)",9.05757769942e-05,-0.00103266444057,0.00143565470353,"(0.000872665, 0.0, 0.0, 0.0, 0.000872665, 0.0, 0.0, 0.0, 0.000872665)",-0.00806268911809,0.00593304181471,-0.119981356859,"(0.003, 0.0, 0.0, 0.0, 0.003, 0.0, 0.0, 0.0, 0.003)"
2022/03/09/18:25:46.619006,15524,1646846746,616744218,imu_iphone,0.00293735923898,0.0209334055356,-0.905602640856,0.42360007239,"(0.00872665, 0.0, 0.0, 0.0, 0.00872665, 0.0, 0.0, 0.0, 0.00872665)",0.000928555615246,-0.000404099933803,0.000897728372365,"(0.000872665, 0.0, 0.0, 0.0, 0.000872665, 0.0, 0.0, 0.0, 0.000872665)",0.00803597465158,0.00627537801862,-0.118189185262,"(0.003, 0.0, 0.0, 0.0, 0.003, 0.0, 0.0, 0.0, 0.003)"
2022/03/09/18:25:46.648144,15525,1646846746,646564346,imu_iphone,0.00294038639341,0.0209529934493,-0.905608146305,0.42358731277,"(0.00872665, 0.0, 0.0, 0.0, 0.00872665, 0.0, 0.0, 0.0, 0.00872665)",0.00113452132791,-0.00133749842644,-0.0011694165878,"(0.000872665, 0.0, 0.0, 0.0, 0.000872665, 0.0, 0.0, 0.0, 0.000872665)",0.0137506412342,0.0153186634742,-0.120001822114,"(0.003, 0.0, 0.0, 0.0, 0.003, 0.0, 0.0, 0.0, 0.003)"
2022/03/09/18:25:46.679537,15526,1646846746,678318933,imu_iphone,0.00294473448484,0.0209524818726,-0.905610675749,0.423581900005,"(0.00872665, 0.0, 0.0, 0.0, 0.00872665, 0.0, 0.0, 0.0, 0.00872665)",0.00240915454924,-0.00105169788003,-0.000351563096046,"(0.000872665, 0.0, 0.0, 0.0, 0.000872665, 0.0, 0.0, 0.0, 0.000872665)",0.00951550293714,0.0032648476772,-0.123893728852,"(0.003, 0.0, 0.0, 0.0, 0.003, 0.0, 0.0, 0.0, 0.003)"
2022/03/09/18:25:46.706249,15527,1646846746,705964568,imu_iphone,0.00293989368745,0.0209625583765,-0.9056104725,0.423581869619,"(0.00872665, 0.0, 0.0, 0.0, 0.00872665, 0.0, 0.0, 0.0, 0.00872665)",-0.000365075655282,-0.000316554680467,0.000295226462185,"(0.000872665, 0.0, 0.0, 0.0, 0.000872665, 0.0, 0.0, 0.0, 0.000872665)",0.00225026439875,0.00565756486729,-0.130038567781,"(0.003, 0.0, 0.0, 0.0, 0.003, 0.0, 0.0, 0.0, 0.003)"
2022/03/09/18:25:46.737943,15528,1646846746,737594892,imu_iphone,0.00294087963304,0.0209600733897,-0.905611188024,0.423580455966,"(0.00872665, 0.0, 0.0, 0.0, 0.00872665, 0.0, 0.0, 0.0, 0.00872665)",6.53564929962e-05,-0.00107224099338,0.000331539195031,"(0.000872665, 0.0, 0.0, 0.0, 0.000872665, 0.0, 0.0, 0.0, 0.000872665)",-0.00184333473444,0.00161227835342,-0.121055490375,"(0.003, 0.0, 0.0, 0.0, 0.003, 0.0, 0.0, 0.0, 0.003)"
2022/03/09/18:25:46.766496,15529,1646846746,766189008,imu_iphone,0.00293939428509,0.0209657303869,-0.905609624155,0.423583529837,"(0.00872665, 0.0, 0.0, 0.0, 0.00872665, 0.0, 0.0, 0.0, 0.00872665)",0.00170442834496,-0.000609587877989,-1.55046582222e-05,"(0.000872665, 0.0, 0.0, 0.0, 0.000872665, 0.0, 0.0, 0.0, 0.000872665)",0.00410657264292,0.00687316445634,-0.117916705012,"(0.003, 0.0, 0.0, 0.0, 0.003, 0.0, 0.0, 0.0, 0.003)"
2022/03/09/18:25:46.800489,15530,1646846746,798727598,imu_iphone,0.00294274456484,0.020966743656,-0.905615027029,0.423571905034,"(0.00872665, 0.0, 0.0, 0.0, 0.00872665, 0.0, 0.0, 0.0, 0.00872665)",0.00194051768631,-0.000143864192069,0.00122256856412,"(0.000872665, 0.0, 0.0, 0.0, 0.000872665, 0.0, 0.0, 0.0, 0.000872665)",0.0172722364962,0.0064875954017,-0.119564450383,"(0.003, 0.0, 0.0, 0.0, 0.003, 0.0, 0.0, 0.0, 0.003)"
2022/03/09/18:25:46.826873,15531,1646846746,826437015,imu_iphone,0.00295303750115,0.0209698191251,-0.905619113518,0.423562943948,"(0.00872665, 0.0, 0.0, 0.0, 0.00872665, 0.0, 0.0, 0.0, 0.00872665)",0.00046261632815,-0.00114294327796,0.000405201688409,"(0.000872665, 0.0, 0.0, 0.0, 0.000872665, 0.0, 0.0, 0.0, 0.000872665)",-0.00775443121791,-0.0015402845107,-0.115376674533,"(0.003, 0.0, 0.0, 0.0, 0.003, 0.0, 0.0, 0.0, 0.003)"
2022/03/09/18:25:46.855217,15532,1646846746,854811724,imu_iphone,0.0029695818532,0.0209611563477,-0.905618304914,0.423564985938,"(0.00872665, 0.0, 0.0, 0.0, 0.00872665, 0.0, 0.0, 0.0, 0.00872665)",-0.000803746283054,-0.000348756089807,0.000768038909882,"(0.000872665, 0.0, 0.0, 0.0, 0.000872665, 0.0, 0.0, 0.0, 0.000872665)",-0.00355565529317,0.00526877984405,-0.122855848074,"(0.003, 0.0, 0.0, 0.0, 0.003, 0.0, 0.0, 0.0, 0.003)"
2022/03/09/18:25:46.888437,15533,1646846746,887296929,imu_iphone,0.00295785615196,0.0209574258367,-0.905611600491,0.423579586908,"(0.00872665, 0.0, 0.0, 0.0, 0.00872665, 0.0, 0.0, 0.0, 0.00872665)",0.000211688689888,-0.00216744560748,0.00172337563708,"(0.000872665, 0.0, 0.0, 0.0, 0.000872665, 0.0, 0.0, 0.0, 0.000872665)",-0.00487533532083,0.000394687056541,-0.130934945941,"(0.003, 0.0, 0.0, 0.0, 0.003, 0.0, 0.0, 0.0, 0.003)"
2022/03/09/18:25:46.914766,15534,1646846746,914455098,imu_iphone,0.0029490527883,0.0209584870984,-0.905611214378,0.423580421288,"(0.00872665, 0.0, 0.0, 0.0, 0.00872665, 0.0, 0.0, 0.0, 0.00872665)",-0.0015911841765,0.000220376998186,0.000772344414145,"(0.000872665, 0.0, 0.0, 0.0, 0.000872665, 0.0, 0.0, 0.0, 0.000872665)",0.00958665624261,0.00743248717859,-0.11611517787,"(0.003, 0.0, 0.0, 0.0, 0.003, 0.0, 0.0, 0.0, 0.003)"
2022/03/09/18:25:46.945148,15535,1646846746,944839069,imu_iphone,0.00294954147016,0.0209665030123,-0.905608949343,0.423584863784,"(0.00872665, 0.0, 0.0, 0.0, 0.00872665, 0.0, 0.0, 0.0, 0.00872665)",-0.000263029709458,-0.00198110379279,-0.00209362059832,"(0.000872665, 0.0, 0.0, 0.0, 0.000872665, 0.0, 0.0, 0.0, 0.000872665)",0.00343684718013,0.0108026212826,-0.102650209665,"(0.003, 0.0, 0.0, 0.0, 0.003, 0.0, 0.0, 0.0, 0.003)"
2022/03/09/18:25:46.974778,15536,1646846746,974455984,imu_iphone,0.0029529584766,0.0209629217293,-0.905611568421,0.423579417691,"(0.00872665, 0.0, 0.0, 0.0, 0.00872665, 0.0, 0.0, 0.0, 0.00872665)",-0.00294800847769,-0.00206333678216,-0.00164111889899,"(0.000872665, 0.0, 0.0, 0.0, 0.000872665, 0.0, 0.0, 0.0, 0.000872665)",0.00514251653105,0.00903524553403,-0.123154640794,"(0.003, 0.0, 0.0, 0.0, 0.003, 0.0, 0.0, 0.0, 0.003)"
2022/03/09/18:25:47.004243,15537,1646846747,3864739,imu_iphone,0.00294293910356,0.0209820318503,-0.905613288009,0.423574864728,"(0.00872665, 0.0, 0.0, 0.0, 0.00872665, 0.0, 0.0, 0.0, 0.00872665)",0.000436116941273,-0.000602313317358,-0.000658047851175,"(0.000872665, 0.0, 0.0, 0.0, 0.000872665, 0.0, 0.0, 0.0, 0.000872665)",-0.000271603167057,0.0102117418684,-0.118978559375,"(0.003, 0.0, 0.0, 0.0, 0.003, 0.0, 0.0, 0.0, 0.003)"
2022/03/09/18:25:47.033948,15538,1646846747,33577209,imu_iphone,0.00295013573288,0.0209762386279,-0.905618350636,0.423564277417,"(0.00872665, 0.0, 0.0, 0.0, 0.00872665, 0.0, 0.0, 0.0, 0.00872665)",-0.00262100994587,0.00253657437861,-0.000915092881769,"(0.000872665, 0.0, 0.0, 0.0, 0.000872665, 0.0, 0.0, 0.0, 0.000872665)",0.00690311316401,-0.00408270869404,-0.122117929459,"(0.003, 0.0, 0.0, 0.0, 0.003, 0.0, 0.0, 0.0, 0.003)"
2022/03/09/18:25:47.063823,15539,1646846747,63468746,imu_iphone,0.00296138027855,0.0209639408519,-0.905627520749,0.423545200742,"(0.00872665, 0.0, 0.0, 0.0, 0.00872665, 0.0, 0.0, 0.0, 0.00872665)",-0.000638980418444,-0.00083142798394,-0.00112550519407,"(0.000872665, 0.0, 0.0, 0.0, 0.000872665, 0.0, 0.0, 0.0, 0.000872665)",0.00225508835167,0.00962924955413,-0.125850791931,"(0.003, 0.0, 0.0, 0.0, 0.003, 0.0, 0.0, 0.0, 0.003)"
2022/03/09/18:25:47.094901,15540,1646846747,93880816,imu_iphone,0.00296356709354,0.0209750414557,-0.905635673035,0.423527204124,"(0.00872665, 0.0, 0.0, 0.0, 0.00872665, 0.0, 0.0, 0.0, 0.00872665)",0.000747276935726,-0.000811864621937,-0.000110625289381,"(0.000872665, 0.0, 0.0, 0.0, 0.000872665, 0.0, 0.0, 0.0, 0.000872665)",-0.00504589129239,-0.00192230869085,-0.127806685567,"(0.003, 0.0, 0.0, 0.0, 0.003, 0.0, 0.0, 0.0, 0.003)"
2022/03/09/18:25:47.123733,15541,1646846747,123062779,imu_iphone,0.00296822149158,0.0209791088038,-0.905636468933,0.423525268187,"(0.00872665, 0.0, 0.0, 0.0, 0.00872665, 0.0, 0.0, 0.0, 0.00872665)",-0.000508920289576,-0.00050011370331,-0.000594963785261,"(0.000872665, 0.0, 0.0, 0.0, 0.000872665, 0.0, 0.0, 0.0, 0.000872665)",0.00441852159798,0.0112163666077,-0.109698443413,"(0.003, 0.0, 0.0, 0.0, 0.003, 0.0, 0.0, 0.0, 0.003)"
2022/03/09/18:25:47.153630,15542,1646846747,153232807,imu_iphone,0.00297999687979,0.0209610856608,-0.905635581255,0.423527976021,"(0.00872665, 0.0, 0.0, 0.0, 0.00872665, 0.0, 0.0, 0.0, 0.00872665)",0.00128176435828,0.00144832395017,0.00078152352944,"(0.000872665, 0.0, 0.0, 0.0, 0.000872665, 0.0, 0.0, 0.0, 0.000872665)",0.00878997310996,0.00708563765511,-0.116270713806,"(0.003, 0.0, 0.0, 0.0, 0.003, 0.0, 0.0, 0.0, 0.003)"
2022/03/09/18:25:47.182353,15543,1646846747,182042718,imu_iphone,0.00297561009885,0.0209518793638,-0.905632716117,0.423534588898,"(0.00872665, 0.0, 0.0, 0.0, 0.00872665, 0.0, 0.0, 0.0, 0.00872665)",0.000960227102041,0.000746086239815,0.000116796698421,"(0.000872665, 0.0, 0.0, 0.0, 0.000872665, 0.0, 0.0, 0.0, 0.000872665)",0.00387122221291,0.00438901143149,-0.116711593866,"(0.003, 0.0, 0.0, 0.0, 0.003, 0.0, 0.0, 0.0, 0.003)"
2022/03/09/18:25:47.213006,15544,1646846747,212689345,imu_iphone,0.00297462594126,0.0209259972517,-0.905629563481,0.423542616497,"(0.00872665, 0.0, 0.0, 0.0, 0.00872665, 0.0, 0.0, 0.0, 0.00872665)",0.00104514090344,-0.000614684075117,-0.00148547440767,"(0.000872665, 0.0, 0.0, 0.0, 0.000872665, 0.0, 0.0, 0.0, 0.000872665)",-0.00182137113065,0.00640489384532,-0.118337119818,"(0.003, 0.0, 0.0, 0.0, 0.003, 0.0, 0.0, 0.0, 0.003)"
2022/03/09/18:25:47.244885,15545,1646846747,244584580,imu_iphone,0.00298513170597,0.0209324912098,-0.905632984483,0.423534906727,"(0.00872665, 0.0, 0.0, 0.0, 0.00872665, 0.0, 0.0, 0.0, 0.00872665)",0.0012062494643,0.000259541906416,-0.000665126368403,"(0.000872665, 0.0, 0.0, 0.0, 0.000872665, 0.0, 0.0, 0.0, 0.000872665)",-0.00598272487521,0.00499598896131,-0.119690750241,"(0.003, 0.0, 0.0, 0.0, 0.003, 0.0, 0.0, 0.0, 0.003)"
2022/03/09/18:25:47.272321,15546,1646846747,272001601,imu_iphone,0.00298303207709,0.0209505262944,-0.905625851026,0.423549282753,"(0.00872665, 0.0, 0.0, 0.0, 0.00872665, 0.0, 0.0, 0.0, 0.00872665)",0.00232412386686,0.00125399045646,0.000567391049117,"(0.000872665, 0.0, 0.0, 0.0, 0.000872665, 0.0, 0.0, 0.0, 0.000872665)",-0.00744485769421,0.00735936043784,-0.124196029902,"(0.003, 0.0, 0.0, 0.0, 0.003, 0.0, 0.0, 0.0, 0.003)"
2022/03/09/18:25:47.302100,15547,1646846747,301848368,imu_iphone,0.00298490016661,0.0209537466423,-0.905623736994,0.423553630449,"(0.00872665, 0.0, 0.0, 0.0, 0.00872665, 0.0, 0.0, 0.0, 0.00872665)",-0.000206293538213,-0.000279933214188,-0.000458531547338,"(0.000872665, 0.0, 0.0, 0.0, 0.000872665, 0.0, 0.0, 0.0, 0.000872665)",0.00337329525501,0.0107141273282,-0.131683389544,"(0.003, 0.0, 0.0, 0.0, 0.003, 0.0, 0.0, 0.0, 0.003)"
2022/03/09/18:25:47.332205,15548,1646846747,331537919,imu_iphone,0.00297841552143,0.0209532223101,-0.905626229307,0.423548373042,"(0.00872665, 0.0, 0.0, 0.0, 0.00872665, 0.0, 0.0, 0.0, 0.00872665)",0.000141559168696,0.000190638937056,0.00169222941622,"(0.000872665, 0.0, 0.0, 0.0, 0.000872665, 0.0, 0.0, 0.0, 0.000872665)",0.00805954623967,0.0110415896773,-0.108630157113,"(0.003, 0.0, 0.0, 0.0, 0.003, 0.0, 0.0, 0.0, 0.003)"
2022/03/09/18:25:47.368588,15549,1646846747,367169514,imu_iphone,0.0029817579171,0.0209503804645,-0.905632485545,0.423535112834,"(0.00872665, 0.0, 0.0, 0.0, 0.00872665, 0.0, 0.0, 0.0, 0.00872665)",-0.00042259786278,0.00151075795293,-0.000915436074138,"(0.000872665, 0.0, 0.0, 0.0, 0.000872665, 0.0, 0.0, 0.0, 0.000872665)",-0.00174506496638,0.00613257804886,-0.119106028676,"(0.003, 0.0, 0.0, 0.0, 0.003, 0.0, 0.0, 0.0, 0.003)"
2022/03/09/18:25:47.391387,15550,1646846747,391099996,imu_iphone,0.00298001215284,0.0209536122963,-0.905637928927,0.423523325625,"(0.00872665, 0.0, 0.0, 0.0, 0.00872665, 0.0, 0.0, 0.0, 0.00872665)",-0.00160986185074,-0.00136423762888,-0.0021234229207,"(0.000872665, 0.0, 0.0, 0.0, 0.000872665, 0.0, 0.0, 0.0, 0.000872665)",-0.00376589924097,-0.000911507830024,-0.125545567274,"(0.003, 0.0, 0.0, 0.0, 0.003, 0.0, 0.0, 0.0, 0.003)"
2022/03/09/18:25:47.421265,15551,1646846747,420924876,imu_iphone,0.002980510069,0.020944991494,-0.905638685533,0.423522130658,"(0.00872665, 0.0, 0.0, 0.0, 0.00872665, 0.0, 0.0, 0.0, 0.00872665)",-0.00165715627372,0.00218607857823,0.000752162653953,"(0.000872665, 0.0, 0.0, 0.0, 0.000872665, 0.0, 0.0, 0.0, 0.000872665)",0.0135907564312,-0.000974730849266,-0.116257849932,"(0.003, 0.0, 0.0, 0.0, 0.003, 0.0, 0.0, 0.0, 0.003)"
2022/03/09/18:25:47.451321,15552,1646846747,450886541,imu_iphone,0.00284990032863,0.0208499985617,-0.905387570306,0.424064267727,"(0.00872665, 0.0, 0.0, 0.0, 0.00872665, 0.0, 0.0, 0.0, 0.00872665)",-0.0431380681694,0.0215020626783,0.0947967544198,"(0.000872665, 0.0, 0.0, 0.0, 0.000872665, 0.0, 0.0, 0.0, 0.000872665)",0.545597260594,1.09917904034,-0.1240983814,"(0.003, 0.0, 0.0, 0.0, 0.003, 0.0, 0.0, 0.0, 0.003)"
2022/03/09/18:25:47.489610,15553,1646846747,489358358,imu_iphone,0.00192054665652,0.020121223086,-0.904588209602,0.425807020764,"(0.00872665, 0.0, 0.0, 0.0, 0.00872665, 0.0, 0.0, 0.0, 0.00872665)",-0.106473967433,0.015061525628,0.171637579799,"(0.000872665, 0.0, 0.0, 0.0, 0.000872665, 0.0, 0.0, 0.0, 0.000872665)",0.187485707402,1.74532545984,-0.0361568427086,"(0.003, 0.0, 0.0, 0.0, 0.003, 0.0, 0.0, 0.0, 0.003)"
2022/03/09/18:25:47.511941,15554,1646846747,510974526,imu_iphone,-0.000260691551337,0.0191324048281,-0.903472715999,0.428218325824,"(0.00872665, 0.0, 0.0, 0.0, 0.00872665, 0.0, 0.0, 0.0, 0.00872665)",-0.203760102391,-0.00850814580917,0.183530852199,"(0.000872665, 0.0, 0.0, 0.0, 0.000872665, 0.0, 0.0, 0.0, 0.000872665)",-0.694363144487,2.76280120969,-0.157620468736,"(0.003, 0.0, 0.0, 0.0, 0.003, 0.0, 0.0, 0.0, 0.003)"
2022/03/09/18:25:47.543206,15555,1646846747,540112890,imu_iphone,-0.00381506122921,0.0177017416499,-0.902305521812,0.430716657395,"(0.00872665, 0.0, 0.0, 0.0, 0.00872665, 0.0, 0.0, 0.0, 0.00872665)",-0.293991625309,-0.00520649878308,0.235206127167,"(0.000872665, 0.0, 0.0, 0.0, 0.000872665, 0.0, 0.0, 0.0, 0.000872665)",-0.0717149305344,2.72196191669,-0.118549958467,"(0.003, 0.0, 0.0, 0.0, 0.003, 0.0, 0.0, 0.0, 0.003)"
2022/03/09/18:25:47.574355,15556,1646846747,570184276,imu_iphone,-0.00859213914485,0.0153184488053,-0.900765777927,0.433949920598,"(0.00872665, 0.0, 0.0, 0.0, 0.00872665, 0.0, 0.0, 0.0, 0.00872665)",-0.402406364679,0.0176667068154,0.238637894392,"(0.000872665, 0.0, 0.0, 0.0, 0.000872665, 0.0, 0.0, 0.0, 0.000872665)",0.497906675376,3.40988742292,-0.261271136999,"(0.003, 0.0, 0.0, 0.0, 0.003, 0.0, 0.0, 0.0, 0.003)"
2022/03/09/18:25:47.606754,15557,1646846747,602943571,imu_iphone,-0.0148295347698,0.0120226328359,-0.899991433747,0.435489334404,"(0.00872665, 0.0, 0.0, 0.0, 0.00872665, 0.0, 0.0, 0.0, 0.00872665)",-0.519199192524,0.0115112550557,0.0694360285997,"(0.000872665, 0.0, 0.0, 0.0, 0.000872665, 0.0, 0.0, 0.0, 0.000872665)",-0.490424249321,3.98320253223,-0.234827104211,"(0.003, 0.0, 0.0, 0.0, 0.003, 0.0, 0.0, 0.0, 0.003)"
2022/03/09/18:25:47.646788,15558,1646846747,646377683,imu_iphone,-0.0221812049975,0.00839583457528,-0.899922092099,0.43540525061,"(0.00872665, 0.0, 0.0, 0.0, 0.00872665, 0.0, 0.0, 0.0, 0.00872665)",-0.570087790489,-0.00303666526452,-0.0125839859247,"(0.000872665, 0.0, 0.0, 0.0, 0.000872665, 0.0, 0.0, 0.0, 0.000872665)",-0.400538365245,2.72055712312,-0.368492699862,"(0.003, 0.0, 0.0, 0.0, 0.003, 0.0, 0.0, 0.0, 0.003)"
2022/03/09/18:25:47.661896,15559,1646846747,661411753,imu_iphone,-0.029982215271,0.00489328015468,-0.900269506473,0.434271733239,"(0.00872665, 0.0, 0.0, 0.0, 0.00872665, 0.0, 0.0, 0.0, 0.00872665)",-0.580050647259,-0.0258254185319,-0.0866906940937,"(0.000872665, 0.0, 0.0, 0.0, 0.000872665, 0.0, 0.0, 0.0, 0.000872665)",-0.538876872919,1.74426550582,-0.283654278517,"(0.003, 0.0, 0.0, 0.0, 0.003, 0.0, 0.0, 0.0, 0.003)"
2022/03/09/18:25:47.690233,15560,1646846747,689916795,imu_iphone,-0.0379561625546,0.0018224885811,-0.900883874938,0.432393631008,"(0.00872665, 0.0, 0.0, 0.0, 0.00872665, 0.0, 0.0, 0.0, 0.00872665)",-0.577182769775,-0.0453420244157,-0.10398876667,"(0.000872665, 0.0, 0.0, 0.0, 0.000872665, 0.0, 0.0, 0.0, 0.000872665)",-0.515475548431,1.49649719775,-0.329504635334,"(0.003, 0.0, 0.0, 0.0, 0.003, 0.0, 0.0, 0.0, 0.003)"
2022/03/09/18:25:47.722034,15561,1646846747,720870344,imu_iphone,-0.045878920949,-0.000894743517111,-0.901482622581,0.430375888301,"(0.00872665, 0.0, 0.0, 0.0, 0.00872665, 0.0, 0.0, 0.0, 0.00872665)",-0.548304378986,-0.0620572343469,-0.11274202168,"(0.000872665, 0.0, 0.0, 0.0, 0.000872665, 0.0, 0.0, 0.0, 0.000872665)",-0.421326824874,0.883389008492,-0.339942499995,"(0.003, 0.0, 0.0, 0.0, 0.003, 0.0, 0.0, 0.0, 0.003)"
2022/03/09/18:25:47.749921,15562,1646846747,748913754,imu_iphone,-0.0533356144321,-0.00304926376934,-0.902254469313,0.427881860831,"(0.00872665, 0.0, 0.0, 0.0, 0.00872665, 0.0, 0.0, 0.0, 0.00872665)",-0.497355937958,-0.066024042666,-0.169905677438,"(0.000872665, 0.0, 0.0, 0.0, 0.000872665, 0.0, 0.0, 0.0, 0.000872665)",-0.267250134274,0.0907853320241,-0.266756994724,"(0.003, 0.0, 0.0, 0.0, 0.003, 0.0, 0.0, 0.0, 0.003)"
2022/03/09/18:25:47.778642,15563,1646846747,778347181,imu_iphone,-0.0601074436009,-0.0047852011945,-0.903186174822,0.424992859567,"(0.00872665, 0.0, 0.0, 0.0, 0.00872665, 0.0, 0.0, 0.0, 0.00872665)",-0.450751572847,-0.0514358691871,-0.138192549348,"(0.000872665, 0.0, 0.0, 0.0, 0.000872665, 0.0, 0.0, 0.0, 0.000872665)",0.390803847536,-0.0922426043451,-0.345863390565,"(0.003, 0.0, 0.0, 0.0, 0.003, 0.0, 0.0, 0.0, 0.003)"
2022/03/09/18:25:47.808536,15564,1646846747,808191075,imu_iphone,-0.0663039626513,-0.00665647951977,-0.903570296326,0.423225938966,"(0.00872665, 0.0, 0.0, 0.0, 0.00872665, 0.0, 0.0, 0.0, 0.00872665)",-0.429201483727,-0.0431436449289,-0.0311163458973,"(0.000872665, 0.0, 0.0, 0.0, 0.000872665, 0.0, 0.0, 0.0, 0.000872665)",0.450673013516,0.141182776093,-0.32333172977,"(0.003, 0.0, 0.0, 0.0, 0.003, 0.0, 0.0, 0.0, 0.003)"
2022/03/09/18:25:47.841306,15565,1646846747,841006980,imu_iphone,-0.072252224096,-0.00862661298838,-0.903450456832,0.422471856709,"(0.00872665, 0.0, 0.0, 0.0, 0.00872665, 0.0, 0.0, 0.0, 0.00872665)",-0.410131663084,-0.0558543540537,-0.0145041979849,"(0.000872665, 0.0, 0.0, 0.0, 0.000872665, 0.0, 0.0, 0.0, 0.000872665)",-0.237051750496,0.102597292364,-0.414039001465,"(0.003, 0.0, 0.0, 0.0, 0.003, 0.0, 0.0, 0.0, 0.003)"
2022/03/09/18:25:47.868158,15566,1646846747,867843542,imu_iphone,-0.0780738681994,-0.0100428329358,-0.903566626718,0.421154322893,"(0.00872665, 0.0, 0.0, 0.0, 0.00872665, 0.0, 0.0, 0.0, 0.00872665)",-0.391334474087,-0.0776910483837,-0.0785895809531,"(0.000872665, 0.0, 0.0, 0.0, 0.000872665, 0.0, 0.0, 0.0, 0.000872665)",-0.694496168643,-0.192926980108,-0.392659242153,"(0.003, 0.0, 0.0, 0.0, 0.003, 0.0, 0.0, 0.0, 0.003)"
2022/03/09/18:25:47.903369,15567,1646846747,897505641,imu_iphone,-0.0838118521876,-0.0111135235123,-0.903811697371,0.419495505011,"(0.00872665, 0.0, 0.0, 0.0, 0.00872665, 0.0, 0.0, 0.0, 0.00872665)",-0.383934468031,-0.0766248181462,-0.04423847422,"(0.000872665, 0.0, 0.0, 0.0, 0.000872665, 0.0, 0.0, 0.0, 0.000872665)",-0.132809965275,-0.300993611813,-0.475694966912,"(0.003, 0.0, 0.0, 0.0, 0.003, 0.0, 0.0, 0.0, 0.003)"
2022/03/09/18:25:47.931365,15568,1646846747,927440055,imu_iphone,-0.0893241296987,-0.0126637660213,-0.903496645612,0.418992410732,"(0.00872665, 0.0, 0.0, 0.0, 0.00872665, 0.0, 0.0, 0.0, 0.00872665)",-0.382936984301,-0.0482564345002,0.085093781352,"(0.000872665, 0.0, 0.0, 0.0, 0.000872665, 0.0, 0.0, 0.0, 0.000872665)",0.518646164574,-0.53671212405,-0.493346541524,"(0.003, 0.0, 0.0, 0.0, 0.003, 0.0, 0.0, 0.0, 0.003)"
2022/03/09/18:25:47.963249,15569,1646846747,962036890,imu_iphone,-0.0945686405746,-0.0151177310489,-0.902318528752,0.420296917784,"(0.00872665, 0.0, 0.0, 0.0, 0.00872665, 0.0, 0.0, 0.0, 0.00872665)",-0.37266728282,-0.0232792161405,0.177182734013,"(0.000872665, 0.0, 0.0, 0.0, 0.000872665, 0.0, 0.0, 0.0, 0.000872665)",0.561444676816,-0.824386655688,-0.423643637896,"(0.003, 0.0, 0.0, 0.0, 0.003, 0.0, 0.0, 0.0, 0.003)"
2022/03/09/18:25:47.989185,15570,1646846747,987650812,imu_iphone,-0.0993413389105,-0.0176700489391,-0.901158367925,0.421583519213,"(0.00872665, 0.0, 0.0, 0.0, 0.00872665, 0.0, 0.0, 0.0, 0.00872665)",-0.328944712877,-0.00974994152784,0.0706227123737,"(0.000872665, 0.0, 0.0, 0.0, 0.000872665, 0.0, 0.0, 0.0, 0.000872665)",0.10841242142,-1.93372084782,-0.47368060112,"(0.003, 0.0, 0.0, 0.0, 0.003, 0.0, 0.0, 0.0, 0.003)"
2022/03/09/18:25:48.018229,15571,1646846748,17038416,imu_iphone,-0.103288621178,-0.0194761650744,-0.900728310005,0.421474377969,"(0.00872665, 0.0, 0.0, 0.0, 0.00872665, 0.0, 0.0, 0.0, 0.00872665)",-0.25589594245,-0.00552202016115,-0.0162869058549,"(0.000872665, 0.0, 0.0, 0.0, 0.000872665, 0.0, 0.0, 0.0, 0.000872665)",0.210261489451,-2.95922935635,-0.317649405599,"(0.003, 0.0, 0.0, 0.0, 0.003, 0.0, 0.0, 0.0, 0.003)"
2022/03/09/18:25:48.047519,15572,1646846748,47118131,imu_iphone,-0.106462237982,-0.020512146662,-0.900968753873,0.420119445239,"(0.00872665, 0.0, 0.0, 0.0, 0.00872665, 0.0, 0.0, 0.0, 0.00872665)",-0.201724648476,-0.00538539234549,-0.111806161702,"(0.000872665, 0.0, 0.0, 0.0, 0.000872665, 0.0, 0.0, 0.0, 0.000872665)",0.13054625228,-2.82370463848,-0.37493223846,"(0.003, 0.0, 0.0, 0.0, 0.003, 0.0, 0.0, 0.0, 0.003)"
2022/03/09/18:25:48.081760,15573,1646846748,81500326,imu_iphone,-0.109032074574,-0.0208491463805,-0.901741465103,0.417779427358,"(0.00872665, 0.0, 0.0, 0.0, 0.00872665, 0.0, 0.0, 0.0, 0.00872665)",-0.15516294539,-0.00248202169314,-0.171013906598,"(0.000872665, 0.0, 0.0, 0.0, 0.000872665, 0.0, 0.0, 0.0, 0.000872665)",0.121289598271,-2.76078772098,-0.245063824654,"(0.003, 0.0, 0.0, 0.0, 0.003, 0.0, 0.0, 0.0, 0.003)"
2022/03/09/18:25:48.106759,15574,1646846748,106463754,imu_iphone,-0.111115064157,-0.0206777062339,-0.902832555513,0.414872572832,"(0.00872665, 0.0, 0.0, 0.0, 0.00872665, 0.0, 0.0, 0.0, 0.00872665)",-0.125051647425,-0.00797906517982,-0.204021990299,"(0.000872665, 0.0, 0.0, 0.0, 0.000872665, 0.0, 0.0, 0.0, 0.000872665)",0.14165223442,-2.72288928509,-0.263202472329,"(0.003, 0.0, 0.0, 0.0, 0.003, 0.0, 0.0, 0.0, 0.003)"
2022/03/09/18:25:48.136680,15575,1646846748,136332626,imu_iphone,-0.112764969323,-0.0201015884693,-0.904082935074,0.411720820876,"(0.00872665, 0.0, 0.0, 0.0, 0.00872665, 0.0, 0.0, 0.0, 0.00872665)",-0.0923471674323,-0.0126979565248,-0.210211753845,"(0.000872665, 0.0, 0.0, 0.0, 0.000872665, 0.0, 0.0, 0.0, 0.000872665)",0.157671302967,-2.67859545708,-0.190803417563,"(0.003, 0.0, 0.0, 0.0, 0.003, 0.0, 0.0, 0.0, 0.003)"
2022/03/09/18:25:48.172668,15576,1646846748,172293617,imu_iphone,-0.113899634719,-0.0192207187382,-0.905345389251,0.408665099249,"(0.00872665, 0.0, 0.0, 0.0, 0.00872665, 0.0, 0.0, 0.0, 0.00872665)",-0.0641327053308,-0.0167665928602,-0.199786365032,"(0.000872665, 0.0, 0.0, 0.0, 0.000872665, 0.0, 0.0, 0.0, 0.000872665)",0.193120011315,-2.657200495,-0.172117470503,"(0.003, 0.0, 0.0, 0.0, 0.003, 0.0, 0.0, 0.0, 0.003)"
2022/03/09/18:25:48.201081,15577,1646846748,200822386,imu_iphone,-0.114672904444,-0.0181958195709,-0.906556717139,0.405800389042,"(0.00872665, 0.0, 0.0, 0.0, 0.00872665, 0.0, 0.0, 0.0, 0.00872665)",-0.0412614047527,-0.0205920748413,-0.187978640199,"(0.000872665, 0.0, 0.0, 0.0, 0.000872665, 0.0, 0.0, 0.0, 0.000872665)",0.242231835388,-2.69495713592,-0.142799531221,"(0.003, 0.0, 0.0, 0.0, 0.003, 0.0, 0.0, 0.0, 0.003)"
2022/03/09/18:25:48.225714,15578,1646846748,225288270,imu_iphone,-0.115015865601,-0.0170155788996,-0.907758664308,0.403058343306,"(0.00872665, 0.0, 0.0, 0.0, 0.00872665, 0.0, 0.0, 0.0, 0.00872665)",-0.00573039520532,-0.0130013655871,-0.196951210499,"(0.000872665, 0.0, 0.0, 0.0, 0.000872665, 0.0, 0.0, 0.0, 0.000872665)",0.307865076922,-2.77234357327,-0.137093233466,"(0.003, 0.0, 0.0, 0.0, 0.003, 0.0, 0.0, 0.0, 0.003)"
2022/03/09/18:25:48.256907,15579,1646846748,254772239,imu_iphone,-0.114723080718,-0.0156027169984,-0.909111846093,0.400138502603,"(0.00872665, 0.0, 0.0, 0.0, 0.00872665, 0.0, 0.0, 0.0, 0.00872665)",0.0445156097412,-0.00269194226712,-0.227864325047,"(0.000872665, 0.0, 0.0, 0.0, 0.000872665, 0.0, 0.0, 0.0, 0.000872665)",0.371776788533,-2.8625906691,-0.154927825928,"(0.003, 0.0, 0.0, 0.0, 0.003, 0.0, 0.0, 0.0, 0.003)"
2022/03/09/18:25:48.290341,15580,1646846748,289923424,imu_iphone,-0.113672364005,-0.0138872798192,-0.910749588188,0.396763058684,"(0.00872665, 0.0, 0.0, 0.0, 0.00872665, 0.0, 0.0, 0.0, 0.00872665)",0.099449954927,0.0120215537027,-0.276586830616,"(0.000872665, 0.0, 0.0, 0.0, 0.000872665, 0.0, 0.0, 0.0, 0.000872665)",0.414741982967,-2.92113182276,-0.177967025042,"(0.003, 0.0, 0.0, 0.0, 0.003, 0.0, 0.0, 0.0, 0.003)"
2022/03/09/18:25:48.320743,15581,1646846748,320438825,imu_iphone,-0.11168112972,-0.0117509878772,-0.912794334256,0.392677657753,"(0.00872665, 0.0, 0.0, 0.0, 0.00872665, 0.0, 0.0, 0.0, 0.00872665)",0.167455241084,0.0303519163281,-0.348767340183,"(0.000872665, 0.0, 0.0, 0.0, 0.000872665, 0.0, 0.0, 0.0, 0.000872665)",0.432182473093,-2.96930790961,-0.202067493796,"(0.003, 0.0, 0.0, 0.0, 0.003, 0.0, 0.0, 0.0, 0.003)"
2022/03/09/18:25:48.345014,15582,1646846748,344722210,imu_iphone,-0.108703233555,-0.00916194699456,-0.915322500932,0.387665300265,"(0.00872665, 0.0, 0.0, 0.0, 0.00872665, 0.0, 0.0, 0.0, 0.00872665)",0.242037326097,0.0514092668891,-0.429664313793,"(0.000872665, 0.0, 0.0, 0.0, 0.000872665, 0.0, 0.0, 0.0, 0.000872665)",0.431888504326,-2.97491597414,-0.231688318849,"(0.003, 0.0, 0.0, 0.0, 0.003, 0.0, 0.0, 0.0, 0.003)"
2022/03/09/18:25:48.376805,15583,1646846748,376220237,imu_iphone,-0.10467648895,-0.00608824983685,-0.918352171971,0.381621611169,"(0.00872665, 0.0, 0.0, 0.0, 0.00872665, 0.0, 0.0, 0.0, 0.00872665)",0.325393229723,0.0631791055202,-0.519145429134,"(0.000872665, 0.0, 0.0, 0.0, 0.000872665, 0.0, 0.0, 0.0, 0.000872665)",0.415395263135,-2.95792045712,-0.271092120409,"(0.003, 0.0, 0.0, 0.0, 0.003, 0.0, 0.0, 0.0, 0.003)"
2022/03/09/18:25:48.409655,15584,1646846748,408576697,imu_iphone,-0.0993229340129,-0.00250956814787,-0.921877692587,0.374526603537,"(0.00872665, 0.0, 0.0, 0.0, 0.00872665, 0.0, 0.0, 0.0, 0.00872665)",0.412048697472,0.0847236067057,-0.607154786587,"(0.000872665, 0.0, 0.0, 0.0, 0.000872665, 0.0, 0.0, 0.0, 0.000872665)",0.405883670524,-2.90240845352,-0.354441255927,"(0.003, 0.0, 0.0, 0.0, 0.003, 0.0, 0.0, 0.0, 0.003)"
2022/03/09/18:25:48.435092,15585,1646846748,434033378,imu_iphone,-0.0925555618258,0.0014088590323,-0.925821803249,0.366449821558,"(0.00872665, 0.0, 0.0, 0.0, 0.00872665, 0.0, 0.0, 0.0, 0.00872665)",0.497169613838,0.104428380728,-0.682148456573,"(0.000872665, 0.0, 0.0, 0.0, 0.000872665, 0.0, 0.0, 0.0, 0.000872665)",0.409926362336,-2.75754982531,-0.406718287468,"(0.003, 0.0, 0.0, 0.0, 0.003, 0.0, 0.0, 0.0, 0.003)"
2022/03/09/18:25:48.465245,15586,1646846748,464891959,imu_iphone,-0.084363695848,0.00544078062656,-0.930028178727,0.357632145512,"(0.00872665, 0.0, 0.0, 0.0, 0.00872665, 0.0, 0.0, 0.0, 0.00872665)",0.580243468285,0.128160580993,-0.73583894968,"(0.000872665, 0.0, 0.0, 0.0, 0.000872665, 0.0, 0.0, 0.0, 0.000872665)",0.428532933444,-2.55518003047,-0.503814811707,"(0.003, 0.0, 0.0, 0.0, 0.003, 0.0, 0.0, 0.0, 0.003)"
2022/03/09/18:25:48.493573,15587,1646846748,493226292,imu_iphone,-0.0747747387221,0.00930867150226,-0.934323092094,0.34837113351,"(0.00872665, 0.0, 0.0, 0.0, 0.00872665, 0.0, 0.0, 0.0, 0.00872665)",0.655692696571,0.154885426164,-0.772967398167,"(0.000872665, 0.0, 0.0, 0.0, 0.000872665, 0.0, 0.0, 0.0, 0.000872665)",0.45884263359,-2.28891142443,-0.579028131366,"(0.003, 0.0, 0.0, 0.0, 0.003, 0.0, 0.0, 0.0, 0.003)"
2022/03/09/18:25:48.527814,15588,1646846748,526738220,imu_iphone,-0.0639188599448,0.0127925275544,-0.938617956415,0.338743357834,"(0.00872665, 0.0, 0.0, 0.0, 0.00872665, 0.0, 0.0, 0.0, 0.00872665)",0.719403326511,0.186031594872,-0.771115720272,"(0.000872665, 0.0, 0.0, 0.0, 0.000872665, 0.0, 0.0, 0.0, 0.000872665)",0.43855798468,-1.98633014739,-0.691855419874,"(0.003, 0.0, 0.0, 0.0, 0.003, 0.0, 0.0, 0.0, 0.003)"
2022/03/09/18:25:48.553557,15589,1646846748,553164815,imu_iphone,-0.0520250343493,0.0155124989385,-0.942525341952,0.329694916483,"(0.00872665, 0.0, 0.0, 0.0, 0.00872665, 0.0, 0.0, 0.0, 0.00872665)",0.767287313938,0.216627925634,-0.693067908287,"(0.000872665, 0.0, 0.0, 0.0, 0.000872665, 0.0, 0.0, 0.0, 0.000872665)",0.441370495409,-1.63486395478,-0.765852518678,"(0.003, 0.0, 0.0, 0.0, 0.003, 0.0, 0.0, 0.0, 0.003)"
2022/03/09/18:25:48.582906,15590,1646846748,582606293,imu_iphone,-0.0394031667323,0.0173437508838,-0.945815445485,0.321838045977,"(0.00872665, 0.0, 0.0, 0.0, 0.00872665, 0.0, 0.0, 0.0, 0.00872665)",0.800565838814,0.245916709304,-0.60196596384,"(0.000872665, 0.0, 0.0, 0.0, 0.000872665, 0.0, 0.0, 0.0, 0.000872665)",0.381149729043,-1.24214507103,-0.871626895666,"(0.003, 0.0, 0.0, 0.0, 0.003, 0.0, 0.0, 0.0, 0.003)"
2022/03/09/18:25:48.613317,15591,1646846748,612553428,imu_iphone,-0.0263671245414,0.018341760282,-0.94844240908,0.315317857459,"(0.00872665, 0.0, 0.0, 0.0, 0.00872665, 0.0, 0.0, 0.0, 0.00872665)",0.813393414021,0.263283699751,-0.465602904558,"(0.000872665, 0.0, 0.0, 0.0, 0.000872665, 0.0, 0.0, 0.0, 0.000872665)",0.28738363266,-0.833132043779,-0.897716002464,"(0.003, 0.0, 0.0, 0.0, 0.003, 0.0, 0.0, 0.0, 0.003)"
2022/03/09/18:25:48.655603,15592,1646846748,648661391,imu_iphone,-0.013267392415,0.018638119737,-0.950136622406,0.310993561919,"(0.00872665, 0.0, 0.0, 0.0, 0.00872665, 0.0, 0.0, 0.0, 0.00872665)",0.814198315144,0.276859730482,-0.278056323528,"(0.000872665, 0.0, 0.0, 0.0, 0.000872665, 0.0, 0.0, 0.0, 0.000872665)",0.195782760233,-0.457679549307,-0.944625874758,"(0.003, 0.0, 0.0, 0.0, 0.003, 0.0, 0.0, 0.0, 0.003)"
2022/03/09/18:25:48.679469,15593,1646846748,672423526,imu_iphone,-0.000399896415848,0.0185250195126,-0.950786638444,0.30929182319,"(0.00872665, 0.0, 0.0, 0.0, 0.00872665, 0.0, 0.0, 0.0, 0.00872665)",0.803967297077,0.275420427322,-0.0613638348877,"(0.000872665, 0.0, 0.0, 0.0, 0.000872665, 0.0, 0.0, 0.0, 0.000872665)",0.0896372677758,-0.0984723923542,-0.934057617188,"(0.003, 0.0, 0.0, 0.0, 0.003, 0.0, 0.0, 0.0, 0.003)"
2022/03/09/18:25:48.704320,15594,1646846748,702223801,imu_iphone,0.0120078685423,0.0183867466462,-0.950303847163,0.310548445027,"(0.00872665, 0.0, 0.0, 0.0, 0.00872665, 0.0, 0.0, 0.0, 0.00872665)",0.782694280148,0.265539586544,0.177347198129,"(0.000872665, 0.0, 0.0, 0.0, 0.000872665, 0.0, 0.0, 0.0, 0.000872665)",-0.0264280260354,0.237569448352,-0.944567402601,"(0.003, 0.0, 0.0, 0.0, 0.003, 0.0, 0.0, 0.0, 0.003)"
2022/03/09/18:25:48.732866,15595,1646846748,731329509,imu_iphone,0.0238083026031,0.0186068064656,-0.948611300527,0.314997701568,"(0.00872665, 0.0, 0.0, 0.0, 0.00872665, 0.0, 0.0, 0.0, 0.00872665)",0.754856526852,0.246682554483,0.418431401253,"(0.000872665, 0.0, 0.0, 0.0, 0.000872665, 0.0, 0.0, 0.0, 0.000872665)",-0.120871010721,0.545234879404,-0.921883714199,"(0.003, 0.0, 0.0, 0.0, 0.003, 0.0, 0.0, 0.0, 0.003)"
2022/03/09/18:25:48.769050,15596,1646846748,767607553,imu_iphone,0.0348829708729,0.0195454057306,-0.945677635598,0.322637513299,"(0.00872665, 0.0, 0.0, 0.0, 0.00872665, 0.0, 0.0, 0.0, 0.00872665)",0.725852787495,0.221172884107,0.648753285408,"(0.000872665, 0.0, 0.0, 0.0, 0.000872665, 0.0, 0.0, 0.0, 0.000872665)",-0.176703185923,0.805228545964,-0.895372438431,"(0.003, 0.0, 0.0, 0.0, 0.003, 0.0, 0.0, 0.0, 0.003)"
2022/03/09/18:25:48.793442,15597,1646846748,791672390,imu_iphone,0.0451967719313,0.0214600199881,-0.941511448487,0.333246022808,"(0.00872665, 0.0, 0.0, 0.0, 0.00872665, 0.0, 0.0, 0.0, 0.00872665)",0.695131659508,0.190901130438,0.85944288969,"(0.000872665, 0.0, 0.0, 0.0, 0.000872665, 0.0, 0.0, 0.0, 0.000872665)",-0.234992233235,1.0452604761,-0.856984298229,"(0.003, 0.0, 0.0, 0.0, 0.003, 0.0, 0.0, 0.0, 0.003)"
2022/03/09/18:25:48.822425,15598,1646846748,821455114,imu_iphone,0.0546587550014,0.0245280561976,-0.936126369984,0.346523035859,"(0.00872665, 0.0, 0.0, 0.0, 0.00872665, 0.0, 0.0, 0.0, 0.00872665)",0.666809618473,0.168229341507,1.03666341305,"(0.000872665, 0.0, 0.0, 0.0, 0.000872665, 0.0, 0.0, 0.0, 0.000872665)",-0.245487089977,1.2552404952,-0.835180031061,"(0.003, 0.0, 0.0, 0.0, 0.003, 0.0, 0.0, 0.0, 0.003)"
2022/03/09/18:25:48.852105,15599,1646846748,850756006,imu_iphone,0.0631978455956,0.0288182206577,-0.929624170784,0.361903914824,"(0.00872665, 0.0, 0.0, 0.0, 0.00872665, 0.0, 0.0, 0.0, 0.00872665)",0.639098167419,0.13229162991,1.1717389822,"(0.000872665, 0.0, 0.0, 0.0, 0.000872665, 0.0, 0.0, 0.0, 0.000872665)",-0.248242224902,1.45041090578,-0.792354438901,"(0.003, 0.0, 0.0, 0.0, 0.003, 0.0, 0.0, 0.0, 0.003)"
2022/03/09/18:25:48.888869,15600,1646846748,888572388,imu_iphone,0.0707481831781,0.0343059711622,-0.922090531421,0.378902159908,"(0.00872665, 0.0, 0.0, 0.0, 0.00872665, 0.0, 0.0, 0.0, 0.00872665)",0.61586779356,0.104406014085,1.27287602425,"(0.000872665, 0.0, 0.0, 0.0, 0.000872665, 0.0, 0.0, 0.0, 0.000872665)",-0.231175627671,1.6360066469,-0.745047540665,"(0.003, 0.0, 0.0, 0.0, 0.003, 0.0, 0.0, 0.0, 0.003)"
2022/03/09/18:25:48.924217,15601,1646846748,923947217,imu_iphone,0.077298390951,0.0408855474199,-0.913659989803,0.396961904722,"(0.00872665, 0.0, 0.0, 0.0, 0.00872665, 0.0, 0.0, 0.0, 0.00872665)",0.590189397335,0.0787333548069,1.32776200771,"(0.000872665, 0.0, 0.0, 0.0, 0.000872665, 0.0, 0.0, 0.0, 0.000872665)",-0.216843078844,1.79614214927,-0.715102195144,"(0.003, 0.0, 0.0, 0.0, 0.003, 0.0, 0.0, 0.0, 0.003)"
2022/03/09/18:25:48.941463,15602,1646846748,940369874,imu_iphone,0.082814601983,0.0483935443486,-0.904506062059,0.415534102405,"(0.00872665, 0.0, 0.0, 0.0, 0.00872665, 0.0, 0.0, 0.0, 0.00872665)",0.568694412708,0.0501673072577,1.35021364689,"(0.000872665, 0.0, 0.0, 0.0, 0.000872665, 0.0, 0.0, 0.0, 0.000872665)",-0.164085132089,1.96090192214,-0.665798472762,"(0.003, 0.0, 0.0, 0.0, 0.003, 0.0, 0.0, 0.0, 0.003)"
2022/03/09/18:25:48.971407,15603,1646846748,969584978,imu_iphone,0.0872659174006,0.0566055374619,-0.894795203929,0.434191220333,"(0.00872665, 0.0, 0.0, 0.0, 0.00872665, 0.0, 0.0, 0.0, 0.00872665)",0.540065467358,0.0272523909807,1.34355795383,"(0.000872665, 0.0, 0.0, 0.0, 0.000872665, 0.0, 0.0, 0.0, 0.000872665)",-0.0993170774728,2.14252579585,-0.602068499923,"(0.003, 0.0, 0.0, 0.0, 0.003, 0.0, 0.0, 0.0, 0.003)"
2022/03/09/18:25:49.000700,15604,1646846749,460610,imu_iphone,0.0906524418969,0.0652956453792,-0.884700072363,0.452575292557,"(0.00872665, 0.0, 0.0, 0.0, 0.00872665, 0.0, 0.0, 0.0, 0.00872665)",0.511811733246,0.00788132566959,1.31335353851,"(0.000872665, 0.0, 0.0, 0.0, 0.000872665, 0.0, 0.0, 0.0, 0.000872665)",-0.0201868542284,2.30854959056,-0.549651135206,"(0.003, 0.0, 0.0, 0.0, 0.003, 0.0, 0.0, 0.0, 0.003)"
2022/03/09/18:25:49.030217,15605,1646846749,29915512,imu_iphone,0.0930010273438,0.0741626956513,-0.874433211714,0.470337391389,"(0.00872665, 0.0, 0.0, 0.0, 0.00872665, 0.0, 0.0, 0.0, 0.00872665)",0.47609397769,-0.0118638854474,1.26141691208,"(0.000872665, 0.0, 0.0, 0.0, 0.000872665, 0.0, 0.0, 0.0, 0.000872665)",0.0712103889138,2.48126654685,-0.516062974334,"(0.003, 0.0, 0.0, 0.0, 0.003, 0.0, 0.0, 0.0, 0.003)"
2022/03/09/18:25:49.059972,15606,1646846749,59640018,imu_iphone,0.0943423910712,0.0829853239788,-0.86414252974,0.487309591066,"(0.00872665, 0.0, 0.0, 0.0, 0.00872665, 0.0, 0.0, 0.0, 0.00872665)",0.436886847019,-0.0238238591701,1.20095407963,"(0.000872665, 0.0, 0.0, 0.0, 0.000872665, 0.0, 0.0, 0.0, 0.000872665)",0.180886978358,2.67346569479,-0.455538445115,"(0.003, 0.0, 0.0, 0.0, 0.003, 0.0, 0.0, 0.0, 0.003)"
2022/03/09/18:25:49.090024,15607,1646846749,88877773,imu_iphone,0.0947118865825,0.0914857191411,-0.853992172854,0.503346193426,"(0.00872665, 0.0, 0.0, 0.0, 0.00872665, 0.0, 0.0, 0.0, 0.00872665)",0.385653316975,-0.0303867347538,1.13974678516,"(0.000872665, 0.0, 0.0, 0.0, 0.000872665, 0.0, 0.0, 0.0, 0.000872665)",0.293512830287,2.85205720246,-0.410564001203,"(0.003, 0.0, 0.0, 0.0, 0.003, 0.0, 0.0, 0.0, 0.003)"
2022/03/09/18:25:49.121341,15608,1646846749,120505745,imu_iphone,0.0941015920339,0.0994484462382,-0.84408407978,0.51843703878,"(0.00872665, 0.0, 0.0, 0.0, 0.00872665, 0.0, 0.0, 0.0, 0.00872665)",0.327353715897,-0.0327654480934,1.07608497143,"(0.000872665, 0.0, 0.0, 0.0, 0.000872665, 0.0, 0.0, 0.0, 0.000872665)",0.426179648414,3.0114049387,-0.321674628854,"(0.003, 0.0, 0.0, 0.0, 0.003, 0.0, 0.0, 0.0, 0.003)"
2022/03/09/18:25:49.150410,15609,1646846749,149108307,imu_iphone,0.0925714569336,0.106649745984,-0.834558357034,0.53251169541,"(0.00872665, 0.0, 0.0, 0.0, 0.00872665, 0.0, 0.0, 0.0, 0.00872665)",0.260460168123,-0.0261344313622,1.00833058357,"(0.000872665, 0.0, 0.0, 0.0, 0.000872665, 0.0, 0.0, 0.0, 0.000872665)",0.538261270747,3.16397136658,-0.318545199037,"(0.003, 0.0, 0.0, 0.0, 0.003, 0.0, 0.0, 0.0, 0.003)"
2022/03/09/18:25:49.181952,15610,1646846749,181601703,imu_iphone,0.0901715861082,0.112841494617,-0.825539535673,0.545545925833,"(0.00872665, 0.0, 0.0, 0.0, 0.00872665, 0.0, 0.0, 0.0, 0.00872665)",0.181730791926,-0.0171188507229,0.939590871334,"(0.000872665, 0.0, 0.0, 0.0, 0.000872665, 0.0, 0.0, 0.0, 0.000872665)",0.65297677137,3.30555292279,-0.21715331018,"(0.003, 0.0, 0.0, 0.0, 0.003, 0.0, 0.0, 0.0, 0.003)"
2022/03/09/18:25:49.208654,15611,1646846749,208085198,imu_iphone,0.0869694714329,0.117820999847,-0.817145040162,0.557519960515,"(0.00872665, 0.0, 0.0, 0.0, 0.00872665, 0.0, 0.0, 0.0, 0.00872665)",0.0963567048311,-0.0030192155391,0.872508466244,"(0.000872665, 0.0, 0.0, 0.0, 0.000872665, 0.0, 0.0, 0.0, 0.000872665)",0.768633162081,3.41704149127,-0.206405543089,"(0.003, 0.0, 0.0, 0.0, 0.003, 0.0, 0.0, 0.0, 0.003)"
2022/03/09/18:25:49.241045,15612,1646846749,240732717,imu_iphone,0.0830422018435,0.121416875725,-0.809491749518,0.568405702351,"(0.00872665, 0.0, 0.0, 0.0, 0.00872665, 0.0, 0.0, 0.0, 0.00872665)",0.00245417328551,0.0224667023867,0.802133858204,"(0.000872665, 0.0, 0.0, 0.0, 0.000872665, 0.0, 0.0, 0.0, 0.000872665)",0.859320407063,3.46375606656,-0.144770627618,"(0.003, 0.0, 0.0, 0.0, 0.003, 0.0, 0.0, 0.0, 0.003)"
2022/03/09/18:25:49.271038,15613,1646846749,268194164,imu_iphone,0.0785419817037,0.123424289978,-0.802753198351,0.578087280858,"(0.00872665, 0.0, 0.0, 0.0, 0.00872665, 0.0, 0.0, 0.0, 0.00872665)",-0.0919548496604,0.0458173491061,0.718784928322,"(0.000872665, 0.0, 0.0, 0.0, 0.000872665, 0.0, 0.0, 0.0, 0.000872665)",0.922875913605,3.47278650641,-0.154067700505,"(0.003, 0.0, 0.0, 0.0, 0.003, 0.0, 0.0, 0.0, 0.003)"
2022/03/09/18:25:49.298512,15614,1646846749,298218126,imu_iphone,0.0736888373709,0.123774728024,-0.797148120659,0.586348570117,"(0.00872665, 0.0, 0.0, 0.0, 0.00872665, 0.0, 0.0, 0.0, 0.00872665)",-0.190361082554,0.0771073251963,0.617724716663,"(0.000872665, 0.0, 0.0, 0.0, 0.000872665, 0.0, 0.0, 0.0, 0.000872665)",0.953992383331,3.41916841596,-0.142020682096,"(0.003, 0.0, 0.0, 0.0, 0.003, 0.0, 0.0, 0.0, 0.003)"
2022/03/09/18:25:49.329341,15615,1646846749,328322980,imu_iphone,0.0686405647181,0.122422783787,-0.792828431667,0.593063413832,"(0.00872665, 0.0, 0.0, 0.0, 0.00872665, 0.0, 0.0, 0.0, 0.00872665)",-0.280928552151,0.106407910585,0.511779367924,"(0.000872665, 0.0, 0.0, 0.0, 0.000872665, 0.0, 0.0, 0.0, 0.000872665)",0.936777595729,3.30757810593,-0.184112448692,"(0.003, 0.0, 0.0, 0.0, 0.003, 0.0, 0.0, 0.0, 0.003)"
2022/03/09/18:25:49.361498,15616,1646846749,361158844,imu_iphone,0.0635293099807,0.119439215958,-0.789843960659,0.598201319186,"(0.00872665, 0.0, 0.0, 0.0, 0.00872665, 0.0, 0.0, 0.0, 0.00872665)",-0.369294255972,0.132053285837,0.386822372675,"(0.000872665, 0.0, 0.0, 0.0, 0.000872665, 0.0, 0.0, 0.0, 0.000872665)",0.92057642296,3.15033156663,-0.264026929736,"(0.003, 0.0, 0.0, 0.0, 0.003, 0.0, 0.0, 0.0, 0.003)"
2022/03/09/18:25:49.388077,15617,1646846749,387711558,imu_iphone,0.0585110030061,0.114896499693,-0.788361120916,0.601549665376,"(0.00872665, 0.0, 0.0, 0.0, 0.00872665, 0.0, 0.0, 0.0, 0.00872665)",-0.443691760302,0.156231760979,0.245073631406,"(0.000872665, 0.0, 0.0, 0.0, 0.000872665, 0.0, 0.0, 0.0, 0.000872665)",0.856385689527,2.94860233426,-0.314801226854,"(0.003, 0.0, 0.0, 0.0, 0.003, 0.0, 0.0, 0.0, 0.003)"
2022/03/09/18:25:49.417195,15618,1646846749,416817803,imu_iphone,0.0536782684038,0.108963062959,-0.788490359362,0.602933369125,"(0.00872665, 0.0, 0.0, 0.0, 0.00872665, 0.0, 0.0, 0.0, 0.00872665)",-0.517978429794,0.173882901669,0.0829630494118,"(0.000872665, 0.0, 0.0, 0.0, 0.000872665, 0.0, 0.0, 0.0, 0.000872665)",0.778403713256,2.70467930138,-0.412523403168,"(0.003, 0.0, 0.0, 0.0, 0.003, 0.0, 0.0, 0.0, 0.003)"
2022/03/09/18:25:49.449366,15619,1646846749,447634165,imu_iphone,0.0490721051016,0.101826713785,-0.790260439568,0.602255499364,"(0.00872665, 0.0, 0.0, 0.0, 0.00872665, 0.0, 0.0, 0.0, 0.00872665)",-0.574821472168,0.190818220377,-0.0872959569097,"(0.000872665, 0.0, 0.0, 0.0, 0.000872665, 0.0, 0.0, 0.0, 0.000872665)",0.690605942979,2.44696429476,-0.482397630215,"(0.003, 0.0, 0.0, 0.0, 0.003, 0.0, 0.0, 0.0, 0.003)"
2022/03/09/18:25:49.482118,15620,1646846749,481034830,imu_iphone,0.0446864738976,0.0936875445387,-0.793694225409,0.599395728715,"(0.00872665, 0.0, 0.0, 0.0, 0.00872665, 0.0, 0.0, 0.0, 0.00872665)",-0.62159460783,0.19911429286,-0.269266337156,"(0.000872665, 0.0, 0.0, 0.0, 0.000872665, 0.0, 0.0, 0.0, 0.000872665)",0.581789698228,2.16618260711,-0.561512212157,"(0.003, 0.0, 0.0, 0.0, 0.003, 0.0, 0.0, 0.0, 0.003)"
2022/03/09/18:25:49.506972,15621,1646846749,506592399,imu_iphone,0.0404371862935,0.0848296700992,-0.798722100232,0.594316218554,"(0.00872665, 0.0, 0.0, 0.0, 0.00872665, 0.0, 0.0, 0.0, 0.00872665)",-0.662218332291,0.198586806655,-0.449059307575,"(0.000872665, 0.0, 0.0, 0.0, 0.000872665, 0.0, 0.0, 0.0, 0.000872665)",0.474488686323,1.8599497439,-0.628771564364,"(0.003, 0.0, 0.0, 0.0, 0.003, 0.0, 0.0, 0.0, 0.003)"
2022/03/09/18:25:49.536601,15622,1646846749,536212883,imu_iphone,0.036174462069,0.0755397145836,-0.805152186242,0.587124447459,"(0.00872665, 0.0, 0.0, 0.0, 0.00872665, 0.0, 0.0, 0.0, 0.00872665)",-0.686806678772,0.195851892233,-0.620771288872,"(0.000872665, 0.0, 0.0, 0.0, 0.000872665, 0.0, 0.0, 0.0, 0.000872665)",0.369296034202,1.55508571386,-0.6901316607,"(0.003, 0.0, 0.0, 0.0, 0.003, 0.0, 0.0, 0.0, 0.003)"
2022/03/09/18:25:49.569152,15623,1646846749,567912562,imu_iphone,0.0317518614577,0.066111204846,-0.812800472687,0.577907016299,"(0.00872665, 0.0, 0.0, 0.0, 0.00872665, 0.0, 0.0, 0.0, 0.00872665)",-0.701901137829,0.181875884533,-0.786444723606,"(0.000872665, 0.0, 0.0, 0.0, 0.000872665, 0.0, 0.0, 0.0, 0.000872665)",0.262262824774,1.25131496698,-0.744105554223,"(0.003, 0.0, 0.0, 0.0, 0.003, 0.0, 0.0, 0.0, 0.003)"
2022/03/09/18:25:49.600673,15624,1646846749,600388241,imu_iphone,0.027058624517,0.0567953593737,-0.82150842827,0.566715113857,"(0.00872665, 0.0, 0.0, 0.0, 0.00872665, 0.0, 0.0, 0.0, 0.00872665)",-0.71063709259,0.160940423608,-0.936338603497,"(0.000872665, 0.0, 0.0, 0.0, 0.000872665, 0.0, 0.0, 0.0, 0.000872665)",0.169239032418,0.986354163811,-0.7735562253,"(0.003, 0.0, 0.0, 0.0, 0.003, 0.0, 0.0, 0.0, 0.003)"
2022/03/09/18:25:49.626844,15625,1646846749,625703257,imu_iphone,0.0219181063192,0.0478504555753,-0.831004836579,0.553769710349,"(0.00872665, 0.0, 0.0, 0.0, 0.00872665, 0.0, 0.0, 0.0, 0.00872665)",-0.71599894762,0.138296604156,-1.06636607647,"(0.000872665, 0.0, 0.0, 0.0, 0.000872665, 0.0, 0.0, 0.0, 0.000872665)",0.0764967104048,0.73774268724,-0.809378607273,"(0.003, 0.0, 0.0, 0.0, 0.003, 0.0, 0.0, 0.0, 0.003)"
2022/03/09/18:25:49.655459,15626,1646846749,655151556,imu_iphone,0.0162591467979,0.0394812680052,-0.841083348467,0.539217646738,"(0.00872665, 0.0, 0.0, 0.0, 0.00872665, 0.0, 0.0, 0.0, 0.00872665)",-0.716172993183,0.109932735562,-1.17771959305,"(0.000872665, 0.0, 0.0, 0.0, 0.000872665, 0.0, 0.0, 0.0, 0.000872665)",0.0398726020753,0.495894173384,-0.817294567823,"(0.003, 0.0, 0.0, 0.0, 0.003, 0.0, 0.0, 0.0, 0.003)"
2022/03/09/18:25:49.690233,15627,1646846749,686814737,imu_iphone,0.010020289501,0.0318223473515,-0.851476146351,0.52333097004,"(0.00872665, 0.0, 0.0, 0.0, 0.00872665, 0.0, 0.0, 0.0, 0.00872665)",-0.714111566544,0.0860764831305,-1.26152670383,"(0.000872665, 0.0, 0.0, 0.0, 0.000872665, 0.0, 0.0, 0.0, 0.000872665)",0.0326598422974,0.273949800879,-0.834348556995,"(0.003, 0.0, 0.0, 0.0, 0.003, 0.0, 0.0, 0.0, 0.003)"
2022/03/09/18:25:49.721348,15628,1646846749,720773793,imu_iphone,0.00319752582142,0.0249983047213,-0.861955861239,0.50635654816,"(0.00872665, 0.0, 0.0, 0.0, 0.00872665, 0.0, 0.0, 0.0, 0.00872665)",-0.710629999638,0.0630174726248,-1.31967401505,"(0.000872665, 0.0, 0.0, 0.0, 0.000872665, 0.0, 0.0, 0.0, 0.000872665)",0.0369795459509,0.0662167388387,-0.832006747127,"(0.003, 0.0, 0.0, 0.0, 0.003, 0.0, 0.0, 0.0, 0.003)"
2022/03/09/18:25:49.748566,15629,1646846749,745105584,imu_iphone,-0.00427621412347,0.0190900447803,-0.872259958334,0.488651050618,"(0.00872665, 0.0, 0.0, 0.0, 0.00872665, 0.0, 0.0, 0.0, 0.00872665)",-0.707719385624,0.0400961115956,-1.34708476067,"(0.000872665, 0.0, 0.0, 0.0, 0.000872665, 0.0, 0.0, 0.0, 0.000872665)",0.0600884365663,-0.0971796734724,-0.849508048296,"(0.003, 0.0, 0.0, 0.0, 0.003, 0.0, 0.0, 0.0, 0.003)"
2022/03/09/18:25:49.774648,15630,1646846749,774190633,imu_iphone,-0.0123820263582,0.0141524877794,-0.882174184515,0.470547660379,"(0.00872665, 0.0, 0.0, 0.0, 0.00872665, 0.0, 0.0, 0.0, 0.00872665)",-0.714522540569,0.0157552435994,-1.34440004826,"(0.000872665, 0.0, 0.0, 0.0, 0.000872665, 0.0, 0.0, 0.0, 0.000872665)",0.0926712052524,-0.278399349265,-0.820795295835,"(0.003, 0.0, 0.0, 0.0, 0.003, 0.0, 0.0, 0.0, 0.003)"
2022/03/09/18:25:49.812817,15631,1646846749,811364984,imu_iphone,-0.0210803095266,0.0101792875351,-0.891502306121,0.452410920334,"(0.00872665, 0.0, 0.0, 0.0, 0.00872665, 0.0, 0.0, 0.0, 0.00872665)",-0.71849167347,-0.00827660784125,-1.3167424202,"(0.000872665, 0.0, 0.0, 0.0, 0.000872665, 0.0, 0.0, 0.0, 0.000872665)",0.109644539393,-0.466826092936,-0.803353051543,"(0.003, 0.0, 0.0, 0.0, 0.003, 0.0, 0.0, 0.0, 0.003)"
2022/03/09/18:25:49.835109,15632,1646846749,834410679,imu_iphone,-0.030296882734,0.00720881400026,-0.900127414035,0.434512106161,"(0.00872665, 0.0, 0.0, 0.0, 0.00872665, 0.0, 0.0, 0.0, 0.00872665)",-0.718888819218,-0.031317666173,-1.2668068409,"(0.000872665, 0.0, 0.0, 0.0, 0.000872665, 0.0, 0.0, 0.0, 0.000872665)",0.144446838051,-0.67119209066,-0.786931731105,"(0.003, 0.0, 0.0, 0.0, 0.003, 0.0, 0.0, 0.0, 0.003)"
2022/03/09/18:25:49.865973,15633,1646846749,864225251,imu_iphone,-0.0399053494288,0.00516171073245,-0.907987823656,0.417059985999,"(0.00872665, 0.0, 0.0, 0.0, 0.00872665, 0.0, 0.0, 0.0, 0.00872665)",-0.718264102936,-0.0492815002799,-1.20671880245,"(0.000872665, 0.0, 0.0, 0.0, 0.000872665, 0.0, 0.0, 0.0, 0.000872665)",0.188865431026,-0.930622158721,-0.768833429217,"(0.003, 0.0, 0.0, 0.0, 0.003, 0.0, 0.0, 0.0, 0.003)"
2022/03/09/18:25:49.893792,15634,1646846749,893386422,imu_iphone,-0.0497196576091,0.00404233560135,-0.915059725143,0.400221581866,"(0.00872665, 0.0, 0.0, 0.0, 0.00872665, 0.0, 0.0, 0.0, 0.00872665)",-0.706589519978,-0.0733730643988,-1.13687980175,"(0.000872665, 0.0, 0.0, 0.0, 0.000872665, 0.0, 0.0, 0.0, 0.000872665)",0.238007185534,-1.18422737673,-0.746221661568,"(0.003, 0.0, 0.0, 0.0, 0.003, 0.0, 0.0, 0.0, 0.003)"
2022/03/09/18:25:49.928174,15635,1646846749,927781087,imu_iphone,-0.0595418778377,0.00380608987464,-0.921394332606,0.384021825297,"(0.00872665, 0.0, 0.0, 0.0, 0.00872665, 0.0, 0.0, 0.0, 0.00872665)",-0.686234533787,-0.0887521356344,-1.07313859463,"(0.000872665, 0.0, 0.0, 0.0, 0.000872665, 0.0, 0.0, 0.0, 0.000872665)",0.288250372745,-1.4779132846,-0.722484304905,"(0.003, 0.0, 0.0, 0.0, 0.003, 0.0, 0.0, 0.0, 0.003)"
2022/03/09/18:25:49.954469,15636,1646846749,953689369,imu_iphone,-0.0691438631588,0.00443463681023,-0.927075300936,0.368416675218,"(0.00872665, 0.0, 0.0, 0.0, 0.00872665, 0.0, 0.0, 0.0, 0.00872665)",-0.655350446701,-0.100256159902,-1.01450240612,"(0.000872665, 0.0, 0.0, 0.0, 0.000872665, 0.0, 0.0, 0.0, 0.000872665)",0.357720228285,-1.77812000737,-0.667644438744,"(0.003, 0.0, 0.0, 0.0, 0.003, 0.0, 0.0, 0.0, 0.003)"
2022/03/09/18:25:49.989125,15637,1646846749,983090261,imu_iphone,-0.0782745029911,0.00590064781075,-0.932198920007,0.353331937524,"(0.00872665, 0.0, 0.0, 0.0, 0.00872665, 0.0, 0.0, 0.0, 0.00872665)",-0.609111189842,-0.113783247769,-0.96661823988,"(0.000872665, 0.0, 0.0, 0.0, 0.000872665, 0.0, 0.0, 0.0, 0.000872665)",0.42062698625,-2.06566283047,-0.621901085973,"(0.003, 0.0, 0.0, 0.0, 0.003, 0.0, 0.0, 0.0, 0.003)"
2022/03/09/18:25:50.019056,15638,1646846750,15050832,imu_iphone,-0.0866839665932,0.00815177750299,-0.936868008754,0.338670596056,"(0.00872665, 0.0, 0.0, 0.0, 0.00872665, 0.0, 0.0, 0.0, 0.00872665)",-0.553706228733,-0.119350679219,-0.929604113102,"(0.000872665, 0.0, 0.0, 0.0, 0.000872665, 0.0, 0.0, 0.0, 0.000872665)",0.524649098888,-2.342433182,-0.551842086911,"(0.003, 0.0, 0.0, 0.0, 0.003, 0.0, 0.0, 0.0, 0.003)"
2022/03/09/18:25:50.047251,15639,1646846750,46221369,imu_iphone,-0.0941460075595,0.0111136021682,-0.941179124837,0.324337589678,"(0.00872665, 0.0, 0.0, 0.0, 0.00872665, 0.0, 0.0, 0.0, 0.00872665)",-0.484052270651,-0.119975671172,-0.903028130531,"(0.000872665, 0.0, 0.0, 0.0, 0.000872665, 0.0, 0.0, 0.0, 0.000872665)",0.62664054662,-2.58042596877,-0.485282061696,"(0.003, 0.0, 0.0, 0.0, 0.003, 0.0, 0.0, 0.0, 0.003)"
2022/03/09/18:25:50.076162,15640,1646846750,74862265,imu_iphone,-0.100452424305,0.0147048492232,-0.945205428788,0.310289824601,"(0.00872665, 0.0, 0.0, 0.0, 0.00872665, 0.0, 0.0, 0.0, 0.00872665)",-0.407407581806,-0.118010275066,-0.884606361389,"(0.000872665, 0.0, 0.0, 0.0, 0.000872665, 0.0, 0.0, 0.0, 0.000872665)",0.740392060652,-2.78256421387,-0.407894162536,"(0.003, 0.0, 0.0, 0.0, 0.003, 0.0, 0.0, 0.0, 0.003)"
2022/03/09/18:25:50.104996,15641,1646846750,103721608,imu_iphone,-0.105450350992,0.0187797324517,-0.94899246613,0.296548215899,"(0.00872665, 0.0, 0.0, 0.0, 0.00872665, 0.0, 0.0, 0.0, 0.00872665)",-0.323439180851,-0.102089650929,-0.866018354893,"(0.000872665, 0.0, 0.0, 0.0, 0.000872665, 0.0, 0.0, 0.0, 0.000872665)",0.862612243295,-2.92336692095,-0.316399855614,"(0.003, 0.0, 0.0, 0.0, 0.003, 0.0, 0.0, 0.0, 0.003)"
2022/03/09/18:25:50.132226,15642,1646846750,131996001,imu_iphone,-0.109015388079,0.0230998175391,-0.952550026917,0.28324987169,"(0.00872665, 0.0, 0.0, 0.0, 0.00872665, 0.0, 0.0, 0.0, 0.00872665)",-0.236868157983,-0.0818196684122,-0.836246430874,"(0.000872665, 0.0, 0.0, 0.0, 0.000872665, 0.0, 0.0, 0.0, 0.000872665)",1.0002784308,-3.01477001131,-0.260405749083,"(0.003, 0.0, 0.0, 0.0, 0.003, 0.0, 0.0, 0.0, 0.003)"
2022/03/09/18:25:50.170514,15643,1646846750,170158983,imu_iphone,-0.111112485533,0.0274323231134,-0.955844676384,0.270670349015,"(0.00872665, 0.0, 0.0, 0.0, 0.00872665, 0.0, 0.0, 0.0, 0.00872665)",-0.153821259737,-0.0578392073512,-0.793706178665,"(0.000872665, 0.0, 0.0, 0.0, 0.000872665, 0.0, 0.0, 0.0, 0.000872665)",1.11919479042,-3.05790901423,-0.213583000302,"(0.003, 0.0, 0.0, 0.0, 0.003, 0.0, 0.0, 0.0, 0.003)"
2022/03/09/18:25:50.206019,15644,1646846750,205676575,imu_iphone,-0.111826852965,0.0314724168654,-0.958835141466,0.259112742687,"(0.00872665, 0.0, 0.0, 0.0, 0.00872665, 0.0, 0.0, 0.0, 0.00872665)",-0.0690254122019,-0.0253395885229,-0.728057384491,"(0.000872665, 0.0, 0.0, 0.0, 0.000872665, 0.0, 0.0, 0.0, 0.000872665)",1.22209635727,-3.04663382828,-0.168986286521,"(0.003, 0.0, 0.0, 0.0, 0.003, 0.0, 0.0, 0.0, 0.003)"
2022/03/09/18:25:50.223525,15645,1646846750,222343607,imu_iphone,-0.111261081141,0.0349804346801,-0.961470941984,0.248939688949,"(0.00872665, 0.0, 0.0, 0.0, 0.00872665, 0.0, 0.0, 0.0, 0.00872665)",0.00756917195395,0.00742025114596,-0.640700817108,"(0.000872665, 0.0, 0.0, 0.0, 0.000872665, 0.0, 0.0, 0.0, 0.000872665)",1.29774741411,-3.00394827694,-0.150875705481,"(0.003, 0.0, 0.0, 0.0, 0.003, 0.0, 0.0, 0.0, 0.003)"
2022/03/09/18:25:50.254381,15646,1646846750,251461843,imu_iphone,-0.109577135379,0.0376752009803,-0.963705482769,0.240510234949,"(0.00872665, 0.0, 0.0, 0.0, 0.00872665, 0.0, 0.0, 0.0, 0.00872665)",0.077829092741,0.0408837944269,-0.526870548725,"(0.000872665, 0.0, 0.0, 0.0, 0.000872665, 0.0, 0.0, 0.0, 0.000872665)",1.33062206849,-2.91377251714,-0.149516227841,"(0.003, 0.0, 0.0, 0.0, 0.003, 0.0, 0.0, 0.0, 0.003)"
2022/03/09/18:25:50.289506,15647,1646846750,288645987,imu_iphone,-0.106984610618,0.0394383017596,-0.96549053314,0.234151540379,"(0.00872665, 0.0, 0.0, 0.0, 0.00872665, 0.0, 0.0, 0.0, 0.00872665)",0.140960246325,0.07518094033,-0.393767952919,"(0.000872665, 0.0, 0.0, 0.0, 0.000872665, 0.0, 0.0, 0.0, 0.000872665)",1.33332260504,-2.80986544847,-0.177991583347,"(0.003, 0.0, 0.0, 0.0, 0.003, 0.0, 0.0, 0.0, 0.003)"
2022/03/09/18:25:50.312972,15648,1646846750,311199290,imu_iphone,-0.103651223486,0.0401244969111,-0.966785631853,0.230156448226,"(0.00872665, 0.0, 0.0, 0.0, 0.00872665, 0.0, 0.0, 0.0, 0.00872665)",0.19995214045,0.108914405107,-0.240073293447,"(0.000872665, 0.0, 0.0, 0.0, 0.000872665, 0.0, 0.0, 0.0, 0.000872665)",1.30264650375,-2.68363458753,-0.197171035409,"(0.003, 0.0, 0.0, 0.0, 0.003, 0.0, 0.0, 0.0, 0.003)"
2022/03/09/18:25:50.342699,15649,1646846750,340698537,imu_iphone,-0.099724528758,0.039776201402,-0.967558605248,0.228698967153,"(0.00872665, 0.0, 0.0, 0.0, 0.00872665, 0.0, 0.0, 0.0, 0.00872665)",0.250811398029,0.137954026461,-0.077782087028,"(0.000872665, 0.0, 0.0, 0.0, 0.000872665, 0.0, 0.0, 0.0, 0.000872665)",1.26707862183,-2.56562374234,-0.204606939554,"(0.003, 0.0, 0.0, 0.0, 0.003, 0.0, 0.0, 0.0, 0.003)"
2022/03/09/18:25:50.370660,15650,1646846750,370174715,imu_iphone,-0.0952737538962,0.0384295258842,-0.967807424044,0.229771350094,"(0.00872665, 0.0, 0.0, 0.0, 0.00872665, 0.0, 0.0, 0.0, 0.00872665)",0.298352479935,0.16099357605,0.0791233330965,"(0.000872665, 0.0, 0.0, 0.0, 0.000872665, 0.0, 0.0, 0.0, 0.000872665)",1.19514456689,-2.44102673963,-0.243292703032,"(0.003, 0.0, 0.0, 0.0, 0.003, 0.0, 0.0, 0.0, 0.003)"
2022/03/09/18:25:50.402434,15651,1646846750,401269020,imu_iphone,-0.0903419523224,0.0362607356646,-0.967542613651,0.233205449056,"(0.00872665, 0.0, 0.0, 0.0, 0.00872665, 0.0, 0.0, 0.0, 0.00872665)",0.344955056906,0.184664130211,0.227539300919,"(0.000872665, 0.0, 0.0, 0.0, 0.000872665, 0.0, 0.0, 0.0, 0.000872665)",1.10110416301,-2.30933779523,-0.27619147718,"(0.003, 0.0, 0.0, 0.0, 0.003, 0.0, 0.0, 0.0, 0.003)"
2022/03/09/18:25:50.430303,15652,1646846750,430015308,imu_iphone,-0.0848824763918,0.0334654637975,-0.966777222596,0.238781971269,"(0.00872665, 0.0, 0.0, 0.0, 0.00872665, 0.0, 0.0, 0.0, 0.00872665)",0.38730275631,0.202801972628,0.363108485937,"(0.000872665, 0.0, 0.0, 0.0, 0.000872665, 0.0, 0.0, 0.0, 0.000872665)",0.994872606844,-2.17598122492,-0.327095582485,"(0.003, 0.0, 0.0, 0.0, 0.003, 0.0, 0.0, 0.0, 0.003)"
2022/03/09/18:25:50.460355,15653,1646846750,460067920,imu_iphone,-0.0788869309852,0.0302728258942,-0.96553811056,0.246163695917,"(0.00872665, 0.0, 0.0, 0.0, 0.00872665, 0.0, 0.0, 0.0, 0.00872665)",0.428803741932,0.215756431222,0.473228931427,"(0.000872665, 0.0, 0.0, 0.0, 0.000872665, 0.0, 0.0, 0.0, 0.000872665)",0.872157822847,-2.03498629063,-0.374940424562,"(0.003, 0.0, 0.0, 0.0, 0.003, 0.0, 0.0, 0.0, 0.003)"
2022/03/09/18:25:50.490741,15654,1646846750,490279193,imu_iphone,-0.0722871271202,0.0269135858303,-0.963851334731,0.255031046518,"(0.00872665, 0.0, 0.0, 0.0, 0.00872665, 0.0, 0.0, 0.0, 0.00872665)",0.47207146883,0.225474640727,0.565378963947,"(0.000872665, 0.0, 0.0, 0.0, 0.000872665, 0.0, 0.0, 0.0, 0.000872665)",0.750909008905,-1.8930642803,-0.443804252744,"(0.003, 0.0, 0.0, 0.0, 0.003, 0.0, 0.0, 0.0, 0.003)"
2022/03/09/18:25:50.521302,15655,1646846750,520758520,imu_iphone,-0.0650559054558,0.0235986266888,-0.961759159094,0.265009724127,"(0.00872665, 0.0, 0.0, 0.0, 0.00872665, 0.0, 0.0, 0.0, 0.00872665)",0.513583183289,0.231124997139,0.639288067818,"(0.000872665, 0.0, 0.0, 0.0, 0.000872665, 0.0, 0.0, 0.0, 0.000872665)",0.626982243285,-1.74480608091,-0.507553521395,"(0.003, 0.0, 0.0, 0.0, 0.003, 0.0, 0.0, 0.0, 0.003)"
2022/03/09/18:25:50.552022,15656,1646846750,549151241,imu_iphone,-0.0571359633923,0.0205282573434,-0.959307054301,0.275760852742,"(0.00872665, 0.0, 0.0, 0.0, 0.00872665, 0.0, 0.0, 0.0, 0.00872665)",0.555703759193,0.234268933535,0.686528265476,"(0.000872665, 0.0, 0.0, 0.0, 0.000872665, 0.0, 0.0, 0.0, 0.000872665)",0.523063041642,-1.56457691431,-0.557009856105,"(0.003, 0.0, 0.0, 0.0, 0.003, 0.0, 0.0, 0.0, 0.003)"
2022/03/09/18:25:50.580598,15657,1646846750,579989462,imu_iphone,-0.0485512150549,0.0178832347168,-0.956541327372,0.286969786671,"(0.00872665, 0.0, 0.0, 0.0, 0.00872665, 0.0, 0.0, 0.0, 0.00872665)",0.597462534904,0.23362621665,0.724237143993,"(0.000872665, 0.0, 0.0, 0.0, 0.000872665, 0.0, 0.0, 0.0, 0.000872665)",0.415133673325,-1.404454422,-0.628226019144,"(0.003, 0.0, 0.0, 0.0, 0.003, 0.0, 0.0, 0.0, 0.003)"
2022/03/09/18:25:50.608271,15658,1646846750,607969026,imu_iphone,-0.0393376874175,0.0157792638656,-0.953475754599,0.298475370127,"(0.00872665, 0.0, 0.0, 0.0, 0.00872665, 0.0, 0.0, 0.0, 0.00872665)",0.637436032295,0.229367375374,0.743844389915,"(0.000872665, 0.0, 0.0, 0.0, 0.000872665, 0.0, 0.0, 0.0, 0.000872665)",0.298023408987,-1.20677285157,-0.660346528888,"(0.003, 0.0, 0.0, 0.0, 0.003, 0.0, 0.0, 0.0, 0.003)"
2022/03/09/18:25:50.643564,15659,1646846750,641384211,imu_iphone,-0.0295327310467,0.0143333477015,-0.950189604573,0.309938846068,"(0.00872665, 0.0, 0.0, 0.0, 0.00872665, 0.0, 0.0, 0.0, 0.00872665)",0.672928631306,0.220028027892,0.744771897793,"(0.000872665, 0.0, 0.0, 0.0, 0.000872665, 0.0, 0.0, 0.0, 0.000872665)",0.172720683888,-0.964418699741,-0.721835848689,"(0.003, 0.0, 0.0, 0.0, 0.003, 0.0, 0.0, 0.0, 0.003)"
2022/03/09/18:25:50.668975,15660,1646846750,668671512,imu_iphone,-0.0192309924462,0.0136515813104,-0.946687081369,0.321290169824,"(0.00872665, 0.0, 0.0, 0.0, 0.00872665, 0.0, 0.0, 0.0, 0.00872665)",0.705434143543,0.211805224419,0.753500938416,"(0.000872665, 0.0, 0.0, 0.0, 0.000872665, 0.0, 0.0, 0.0, 0.000872665)",0.0837958262488,-0.740865100399,-0.75351840198,"(0.003, 0.0, 0.0, 0.0, 0.003, 0.0, 0.0, 0.0, 0.003)"
2022/03/09/18:25:50.699604,15661,1646846750,698480141,imu_iphone,-0.00859482693021,0.0137744646384,-0.942959347089,0.332511748381,"(0.00872665, 0.0, 0.0, 0.0, 0.00872665, 0.0, 0.0, 0.0, 0.00872665)",0.729620397091,0.196252912283,0.754058778286,"(0.000872665, 0.0, 0.0, 0.0, 0.000872665, 0.0, 0.0, 0.0, 0.000872665)",-0.0401094143093,-0.480045331903,-0.811545000672,"(0.003, 0.0, 0.0, 0.0, 0.003, 0.0, 0.0, 0.0, 0.003)"
2022/03/09/18:25:50.727845,15662,1646846750,727494287,imu_iphone,0.00224170380395,0.0147818070894,-0.939007620045,0.343571189772,"(0.00872665, 0.0, 0.0, 0.0, 0.00872665, 0.0, 0.0, 0.0, 0.00872665)",0.749806582928,0.175915271044,0.763904213905,"(0.000872665, 0.0, 0.0, 0.0, 0.000872665, 0.0, 0.0, 0.0, 0.000872665)",-0.121044837479,-0.214120816234,-0.8261764884,"(0.003, 0.0, 0.0, 0.0, 0.003, 0.0, 0.0, 0.0, 0.003)"
2022/03/09/18:25:50.762319,15663,1646846750,761011324,imu_iphone,0.0130962130577,0.0166740817484,-0.934784602508,0.354581741091,"(0.00872665, 0.0, 0.0, 0.0, 0.00872665, 0.0, 0.0, 0.0, 0.00872665)",0.759317755699,0.155810028315,0.771282851696,"(0.000872665, 0.0, 0.0, 0.0, 0.000872665, 0.0, 0.0, 0.0, 0.000872665)",-0.197990760226,0.095132481046,-0.847825219631,"(0.003, 0.0, 0.0, 0.0, 0.003, 0.0, 0.0, 0.0, 0.003)"
2022/03/09/18:25:50.788727,15664,1646846750,787845147,imu_iphone,0.0238049044241,0.0194337485564,-0.930224910815,0.365701068143,"(0.00872665, 0.0, 0.0, 0.0, 0.00872665, 0.0, 0.0, 0.0, 0.00872665)",0.763104021549,0.129892081022,0.802110075951,"(0.000872665, 0.0, 0.0, 0.0, 0.000872665, 0.0, 0.0, 0.0, 0.000872665)",-0.215186617468,0.387837847397,-0.839570705295,"(0.003, 0.0, 0.0, 0.0, 0.003, 0.0, 0.0, 0.0, 0.003)"
2022/03/09/18:25:50.819979,15665,1646846750,819706710,imu_iphone,0.0341517718788,0.0230655768164,-0.925228829212,0.377164750789,"(0.00872665, 0.0, 0.0, 0.0, 0.00872665, 0.0, 0.0, 0.0, 0.00872665)",0.75269651413,0.106612682343,0.840344727039,"(0.000872665, 0.0, 0.0, 0.0, 0.000872665, 0.0, 0.0, 0.0, 0.000872665)",-0.241615959127,0.700977003202,-0.819786066413,"(0.003, 0.0, 0.0, 0.0, 0.003, 0.0, 0.0, 0.0, 0.003)"
2022/03/09/18:25:50.849432,15666,1646846750,848608714,imu_iphone,0.0439309125354,0.0275755679413,-0.91972783016,0.389114869166,"(0.00872665, 0.0, 0.0, 0.0, 0.00872665, 0.0, 0.0, 0.0, 0.00872665)",0.735478997231,0.0782084241509,0.879245460033,"(0.000872665, 0.0, 0.0, 0.0, 0.000872665, 0.0, 0.0, 0.0, 0.000872665)",-0.222934543658,1.007001267,-0.816944904327,"(0.003, 0.0, 0.0, 0.0, 0.003, 0.0, 0.0, 0.0, 0.003)"
2022/03/09/18:25:50.888469,15667,1646846750,880901425,imu_iphone,0.0529535189152,0.0329300826737,-0.913653483849,0.401682518839,"(0.00872665, 0.0, 0.0, 0.0, 0.00872665, 0.0, 0.0, 0.0, 0.00872665)",0.710010886192,0.0558132193983,0.944954514503,"(0.000872665, 0.0, 0.0, 0.0, 0.000872665, 0.0, 0.0, 0.0, 0.000872665)",-0.179244733024,1.28091006428,-0.766057171226,"(0.003, 0.0, 0.0, 0.0, 0.003, 0.0, 0.0, 0.0, 0.003)"
2022/03/09/18:25:50.908098,15668,1646846750,907051483,imu_iphone,0.0610005474998,0.0390646799531,-0.906894492405,0.415084646343,"(0.00872665, 0.0, 0.0, 0.0, 0.00872665, 0.0, 0.0, 0.0, 0.00872665)",0.673940300941,0.0312355868518,1.00742089748,"(0.000872665, 0.0, 0.0, 0.0, 0.000872665, 0.0, 0.0, 0.0, 0.000872665)",-0.145533360355,1.58750706285,-0.710534934998,"(0.003, 0.0, 0.0, 0.0, 0.003, 0.0, 0.0, 0.0, 0.003)"
2022/03/09/18:25:50.939155,15669,1646846750,936648716,imu_iphone,0.0678837774302,0.0459242113867,-0.899405650583,0.429362591839,"(0.00872665, 0.0, 0.0, 0.0, 0.00872665, 0.0, 0.0, 0.0, 0.00872665)",0.627901613712,0.00926773343235,1.06565105915,"(0.000872665, 0.0, 0.0, 0.0, 0.000872665, 0.0, 0.0, 0.0, 0.000872665)",-0.0773090348393,1.84193447247,-0.649864810109,"(0.003, 0.0, 0.0, 0.0, 0.003, 0.0, 0.0, 0.0, 0.003)"
2022/03/09/18:25:50.968742,15670,1646846750,968404547,imu_iphone,0.0734550917068,0.0533741757214,-0.891232281452,0.444365353473,"(0.00872665, 0.0, 0.0, 0.0, 0.00872665, 0.0, 0.0, 0.0, 0.00872665)",0.580097854137,-0.00853534787893,1.1195731163,"(0.000872665, 0.0, 0.0, 0.0, 0.000872665, 0.0, 0.0, 0.0, 0.000872665)",-0.00529542122036,2.0725024648,-0.597798863053,"(0.003, 0.0, 0.0, 0.0, 0.003, 0.0, 0.0, 0.0, 0.003)"
2022/03/09/18:25:51.001059,15671,1646846751,482318,imu_iphone,0.0776341819039,0.0612371005449,-0.88241468464,0.459964428678,"(0.00872665, 0.0, 0.0, 0.0, 0.00872665, 0.0, 0.0, 0.0, 0.00872665)",0.521472394466,-0.0260633267462,1.15833342075,"(0.000872665, 0.0, 0.0, 0.0, 0.000872665, 0.0, 0.0, 0.0, 0.000872665)",0.0820629673451,2.26404862493,-0.53251703918,"(0.003, 0.0, 0.0, 0.0, 0.003, 0.0, 0.0, 0.0, 0.003)"
2022/03/09/18:25:51.026420,15672,1646846751,26012561,imu_iphone,0.0803655511423,0.0693133415446,-0.873035471341,0.47596859629,"(0.00872665, 0.0, 0.0, 0.0, 0.00872665, 0.0, 0.0, 0.0, 0.00872665)",0.462649792433,-0.0360799916089,1.18240666389,"(0.000872665, 0.0, 0.0, 0.0, 0.000872665, 0.0, 0.0, 0.0, 0.000872665)",0.187538697794,2.43011568904,-0.474851213694,"(0.003, 0.0, 0.0, 0.0, 0.003, 0.0, 0.0, 0.0, 0.003)"
2022/03/09/18:25:51.055881,15673,1646846751,55484168,imu_iphone,0.0816945405154,0.077349792463,-0.863241751151,0.492094188876,"(0.00872665, 0.0, 0.0, 0.0, 0.00872665, 0.0, 0.0, 0.0, 0.00872665)",0.403232336044,-0.0414985381067,1.18406653404,"(0.000872665, 0.0, 0.0, 0.0, 0.000872665, 0.0, 0.0, 0.0, 0.000872665)",0.275965993926,2.56229930788,-0.414185181856,"(0.003, 0.0, 0.0, 0.0, 0.003, 0.0, 0.0, 0.0, 0.003)"
2022/03/09/18:25:51.089245,15674,1646846751,88022295,imu_iphone,0.0817204113091,0.0851272393663,-0.853221369343,0.508024037217,"(0.00872665, 0.0, 0.0, 0.0, 0.00872665, 0.0, 0.0, 0.0, 0.00872665)",0.341545403004,-0.0483506731689,1.16396403313,"(0.000872665, 0.0, 0.0, 0.0, 0.000872665, 0.0, 0.0, 0.0, 0.000872665)",0.370403204486,2.66333656311,-0.373347643018,"(0.003, 0.0, 0.0, 0.0, 0.003, 0.0, 0.0, 0.0, 0.003)"
2022/03/09/18:25:51.120802,15675,1646846751,120385066,imu_iphone,0.0806283159959,0.0923895084733,-0.843226629924,0.523385234766,"(0.00872665, 0.0, 0.0, 0.0, 0.00872665, 0.0, 0.0, 0.0, 0.00872665)",0.2826795578,-0.0461492165923,1.11755120754,"(0.000872665, 0.0, 0.0, 0.0, 0.000872665, 0.0, 0.0, 0.0, 0.000872665)",0.456401201785,2.72707998455,-0.308642354608,"(0.003, 0.0, 0.0, 0.0, 0.003, 0.0, 0.0, 0.0, 0.003)"
2022/03/09/18:25:51.145684,15676,1646846751,145411580,imu_iphone,0.0786496117613,0.0989427584406,-0.833515905546,0.5378436616,"(0.00872665, 0.0, 0.0, 0.0, 0.00872665, 0.0, 0.0, 0.0, 0.00872665)",0.224715605378,-0.0447121746838,1.04833102226,"(0.000872665, 0.0, 0.0, 0.0, 0.000872665, 0.0, 0.0, 0.0, 0.000872665)",0.533198385984,2.7801098451,-0.290235904455,"(0.003, 0.0, 0.0, 0.0, 0.003, 0.0, 0.0, 0.0, 0.003)"
2022/03/09/18:25:51.175114,15677,1646846751,174751408,imu_iphone,0.0760257484022,0.104590672731,-0.824373965655,0.551079342299,"(0.00872665, 0.0, 0.0, 0.0, 0.00872665, 0.0, 0.0, 0.0, 0.00872665)",0.165419906378,-0.0362375304103,0.956150949001,"(0.000872665, 0.0, 0.0, 0.0, 0.000872665, 0.0, 0.0, 0.0, 0.000872665)",0.608760126606,2.78996649653,-0.250939106941,"(0.003, 0.0, 0.0, 0.0, 0.003, 0.0, 0.0, 0.0, 0.003)"
2022/03/09/18:25:51.208963,15678,1646846751,208592695,imu_iphone,0.0730030662565,0.109191303312,-0.81606476212,0.562837557048,"(0.00872665, 0.0, 0.0, 0.0, 0.00872665, 0.0, 0.0, 0.0, 0.00872665)",0.109076470137,-0.0278930701315,0.84446644783,"(0.000872665, 0.0, 0.0, 0.0, 0.000872665, 0.0, 0.0, 0.0, 0.000872665)",0.658757621124,2.80859894156,-0.236699382663,"(0.003, 0.0, 0.0, 0.0, 0.003, 0.0, 0.0, 0.0, 0.003)"
2022/03/09/18:25:51.235158,15679,1646846751,234651771,imu_iphone,0.0698194919036,0.112693515989,-0.808843478968,0.572885360726,"(0.00872665, 0.0, 0.0, 0.0, 0.00872665, 0.0, 0.0, 0.0, 0.00872665)",0.0523744449019,-0.0135486070067,0.71771556139,"(0.000872665, 0.0, 0.0, 0.0, 0.000872665, 0.0, 0.0, 0.0, 0.000872665)",0.713970466554,2.82314447522,-0.221020658612,"(0.003, 0.0, 0.0, 0.0, 0.003, 0.0, 0.0, 0.0, 0.003)"
2022/03/09/18:25:51.264864,15680,1646846751,264462707,imu_iphone,0.0666741326663,0.115029878307,-0.802918157157,0.58107238795,"(0.00872665, 0.0, 0.0, 0.0, 0.00872665, 0.0, 0.0, 0.0, 0.00872665)",-0.0016554929316,-0.0032986709848,0.577385008335,"(0.000872665, 0.0, 0.0, 0.0, 0.000872665, 0.0, 0.0, 0.0, 0.000872665)",0.740613670126,2.80901847929,-0.197589111328,"(0.003, 0.0, 0.0, 0.0, 0.003, 0.0, 0.0, 0.0, 0.003)"
2022/03/09/18:25:51.294484,15681,1646846751,294145930,imu_iphone,0.0636818751445,0.116165251599,-0.798433395202,0.587328159146,"(0.00872665, 0.0, 0.0, 0.0, 0.00872665, 0.0, 0.0, 0.0, 0.00872665)",-0.0635364353657,0.0136794960126,0.431698262691,"(0.000872665, 0.0, 0.0, 0.0, 0.000872665, 0.0, 0.0, 0.0, 0.000872665)",0.784454923645,2.81356673598,-0.19778031528,"(0.003, 0.0, 0.0, 0.0, 0.003, 0.0, 0.0, 0.0, 0.003)"
2022/03/09/18:25:51.327111,15682,1646846751,326599093,imu_iphone,0.060877616844,0.116100758059,-0.795456202433,0.591662031701,"(0.00872665, 0.0, 0.0, 0.0, 0.00872665, 0.0, 0.0, 0.0, 0.00872665)",-0.127103373408,0.0284392610192,0.289127588272,"(0.000872665, 0.0, 0.0, 0.0, 0.000872665, 0.0, 0.0, 0.0, 0.000872665)",0.816225112081,2.80469884872,-0.205452446938,"(0.003, 0.0, 0.0, 0.0, 0.003, 0.0, 0.0, 0.0, 0.003)"
2022/03/09/18:25:51.354304,15683,1646846751,353961482,imu_iphone,0.0582116708542,0.114824888699,-0.793946673861,0.594201418188,"(0.00872665, 0.0, 0.0, 0.0, 0.00872665, 0.0, 0.0, 0.0, 0.00872665)",-0.191138535738,0.0431348122656,0.158266097307,"(0.000872665, 0.0, 0.0, 0.0, 0.000872665, 0.0, 0.0, 0.0, 0.000872665)",0.848501888663,2.78386229575,-0.202723551393,"(0.003, 0.0, 0.0, 0.0, 0.003, 0.0, 0.0, 0.0, 0.003)"
2022/03/09/18:25:51.384017,15684,1646846751,383736879,imu_iphone,0.0556106835865,0.112387133371,-0.793784149042,0.595133017781,"(0.00872665, 0.0, 0.0, 0.0, 0.00872665, 0.0, 0.0, 0.0, 0.00872665)",-0.259834975004,0.0693120062351,0.0411599874496,"(0.000872665, 0.0, 0.0, 0.0, 0.000872665, 0.0, 0.0, 0.0, 0.000872665)",0.86866586566,2.7138091439,-0.230954493284,"(0.003, 0.0, 0.0, 0.0, 0.003, 0.0, 0.0, 0.0, 0.003)"
2022/03/09/18:25:51.413330,15685,1646846751,413043069,imu_iphone,0.0529920827101,0.108778915974,-0.794862936326,0.594602303279,"(0.00872665, 0.0, 0.0, 0.0, 0.00872665, 0.0, 0.0, 0.0, 0.00872665)",-0.328566431999,0.0896250456572,-0.0635205060244,"(0.000872665, 0.0, 0.0, 0.0, 0.000872665, 0.0, 0.0, 0.0, 0.000872665)",0.881078481227,2.6277410531,-0.253725889921,"(0.003, 0.0, 0.0, 0.0, 0.003, 0.0, 0.0, 0.0, 0.003)"
2022/03/09/18:25:51.448972,15686,1646846751,448698193,imu_iphone,0.0502600935571,0.104088353427,-0.797045814816,0.592754170598,"(0.00872665, 0.0, 0.0, 0.0, 0.00872665, 0.0, 0.0, 0.0, 0.00872665)",-0.3945094347,0.111602939665,-0.160380885005,"(0.000872665, 0.0, 0.0, 0.0, 0.000872665, 0.0, 0.0, 0.0, 0.000872665)",0.859552102983,2.50723753989,-0.29551243186,"(0.003, 0.0, 0.0, 0.0, 0.003, 0.0, 0.0, 0.0, 0.003)"
2022/03/09/18:25:51.474553,15687,1646846751,474132212,imu_iphone,0.0473172960837,0.0983920908184,-0.800188771998,0.589727054767,"(0.00872665, 0.0, 0.0, 0.0, 0.00872665, 0.0, 0.0, 0.0, 0.00872665)",-0.456846773624,0.129204571247,-0.245634138584,"(0.000872665, 0.0, 0.0, 0.0, 0.000872665, 0.0, 0.0, 0.0, 0.000872665)",0.817168121785,2.35462316483,-0.351823457479,"(0.003, 0.0, 0.0, 0.0, 0.003, 0.0, 0.0, 0.0, 0.003)"
2022/03/09/18:25:51.503519,15688,1646846751,503118879,imu_iphone,0.0440801556532,0.0917968918241,-0.804159414579,0.585626080765,"(0.00872665, 0.0, 0.0, 0.0, 0.00872665, 0.0, 0.0, 0.0, 0.00872665)",-0.517041444778,0.148471474648,-0.328873753548,"(0.000872665, 0.0, 0.0, 0.0, 0.000872665, 0.0, 0.0, 0.0, 0.000872665)",0.754593631849,2.18252499014,-0.416610606909,"(0.003, 0.0, 0.0, 0.0, 0.003, 0.0, 0.0, 0.0, 0.003)"
2022/03/09/18:25:51.532307,15689,1646846751,532013030,imu_iphone,0.0404713758933,0.0844541641888,-0.808832053569,0.580534470126,"(0.00872665, 0.0, 0.0, 0.0, 0.00872665, 0.0, 0.0, 0.0, 0.00872665)",-0.569128811359,0.16144926846,-0.398626804352,"(0.000872665, 0.0, 0.0, 0.0, 0.000872665, 0.0, 0.0, 0.0, 0.000872665)",0.678820660561,1.95521170422,-0.481632229686,"(0.003, 0.0, 0.0, 0.0, 0.003, 0.0, 0.0, 0.0, 0.003)"
2022/03/09/18:25:51.569665,15690,1646846751,568635787,imu_iphone,0.0364292696494,0.0765258368767,-0.814078983248,0.57453643369,"(0.00872665, 0.0, 0.0, 0.0, 0.00872665, 0.0, 0.0, 0.0, 0.00872665)",-0.615089178085,0.167686209083,-0.470919638872,"(0.000872665, 0.0, 0.0, 0.0, 0.000872665, 0.0, 0.0, 0.0, 0.000872665)",0.574684600309,1.72200939506,-0.53626393497,"(0.003, 0.0, 0.0, 0.0, 0.003, 0.0, 0.0, 0.0, 0.003)"
2022/03/09/18:25:51.593319,15691,1646846751,592207662,imu_iphone,0.031951579114,0.0682133332645,-0.819879940939,0.567558737227,"(0.00872665, 0.0, 0.0, 0.0, 0.00872665, 0.0, 0.0, 0.0, 0.00872665)",-0.653426468372,0.173776626587,-0.55660700798,"(0.000872665, 0.0, 0.0, 0.0, 0.000872665, 0.0, 0.0, 0.0, 0.000872665)",0.454382012039,1.47339821085,-0.600505539179,"(0.003, 0.0, 0.0, 0.0, 0.003, 0.0, 0.0, 0.0, 0.003)"
2022/03/09/18:25:51.622413,15692,1646846751,622006218,imu_iphone,0.0270268943782,0.0596847384115,-0.826228648151,0.559511840765,"(0.00872665, 0.0, 0.0, 0.0, 0.00872665, 0.0, 0.0, 0.0, 0.00872665)",-0.678006410599,0.171426191926,-0.644614398479,"(0.000872665, 0.0, 0.0, 0.0, 0.000872665, 0.0, 0.0, 0.0, 0.000872665)",0.344063398317,1.19854954675,-0.656932339668,"(0.003, 0.0, 0.0, 0.0, 0.003, 0.0, 0.0, 0.0, 0.003)"
2022/03/09/18:25:51.654743,15693,1646846751,654345160,imu_iphone,0.0216760337293,0.0511642938313,-0.833092343995,0.550335816548,"(0.00872665, 0.0, 0.0, 0.0, 0.00872665, 0.0, 0.0, 0.0, 0.00872665)",-0.698556125164,0.160055443645,-0.737315237522,"(0.000872665, 0.0, 0.0, 0.0, 0.000872665, 0.0, 0.0, 0.0, 0.000872665)",0.244638147354,0.911990225315,-0.699301264286,"(0.003, 0.0, 0.0, 0.0, 0.003, 0.0, 0.0, 0.0, 0.003)"
2022/03/09/18:25:51.689065,15694,1646846751,688734165,imu_iphone,0.0158851760584,0.0428595877663,-0.840455014975,0.539950076138,"(0.00872665, 0.0, 0.0, 0.0, 0.00872665, 0.0, 0.0, 0.0, 0.00872665)",-0.703041017056,0.146776810288,-0.831939339638,"(0.000872665, 0.0, 0.0, 0.0, 0.000872665, 0.0, 0.0, 0.0, 0.000872665)",0.15270953849,0.608661674112,-0.714740252495,"(0.003, 0.0, 0.0, 0.0, 0.003, 0.0, 0.0, 0.0, 0.003)"
2022/03/09/18:25:51.713060,15695,1646846751,711962439,imu_iphone,0.00971215337694,0.0349734971819,-0.848268255966,0.52832139318,"(0.00872665, 0.0, 0.0, 0.0, 0.00872665, 0.0, 0.0, 0.0, 0.00872665)",-0.705961883068,0.130262374878,-0.926075100899,"(0.000872665, 0.0, 0.0, 0.0, 0.000872665, 0.0, 0.0, 0.0, 0.000872665)",0.0740879864618,0.329118170924,-0.75333538413,"(0.003, 0.0, 0.0, 0.0, 0.003, 0.0, 0.0, 0.0, 0.003)"
2022/03/09/18:25:51.742821,15696,1646846751,741739531,imu_iphone,0.00313725602551,0.0277318569198,-0.856453662195,0.515468938201,"(0.00872665, 0.0, 0.0, 0.0, 0.00872665, 0.0, 0.0, 0.0, 0.00872665)",-0.69675219059,0.108610183001,-1.01741468906,"(0.000872665, 0.0, 0.0, 0.0, 0.000872665, 0.0, 0.0, 0.0, 0.000872665)",0.0250171659887,0.0629945758358,-0.739775106311,"(0.003, 0.0, 0.0, 0.0, 0.003, 0.0, 0.0, 0.0, 0.003)"
2022/03/09/18:25:51.773197,15697,1646846751,770659569,imu_iphone,-0.00379200360342,0.0212671000842,-0.864941597291,0.50140738371,"(0.00872665, 0.0, 0.0, 0.0, 0.00872665, 0.0, 0.0, 0.0, 0.00872665)",-0.68236297369,0.0863055586815,-1.10170328617,"(0.000872665, 0.0, 0.0, 0.0, 0.000872665, 0.0, 0.0, 0.0, 0.000872665)",-0.0213680648804,-0.183401500359,-0.742930263877,"(0.003, 0.0, 0.0, 0.0, 0.003, 0.0, 0.0, 0.0, 0.003)"
2022/03/09/18:25:51.810976,15698,1646846751,808522522,imu_iphone,-0.0110608247854,0.0156996189519,-0.873630978367,0.486209927662,"(0.00872665, 0.0, 0.0, 0.0, 0.00872665, 0.0, 0.0, 0.0, 0.00872665)",-0.669503748417,0.0628853291273,-1.16776394844,"(0.000872665, 0.0, 0.0, 0.0, 0.000872665, 0.0, 0.0, 0.0, 0.000872665)",-0.0406217400357,-0.394437453523,-0.737267820239,"(0.003, 0.0, 0.0, 0.0, 0.003, 0.0, 0.0, 0.0, 0.003)"
2022/03/09/18:25:51.830688,15699,1646846751,830407188,imu_iphone,-0.0186193946803,0.0111449761594,-0.882372399345,0.470051121179,"(0.00872665, 0.0, 0.0, 0.0, 0.00872665, 0.0, 0.0, 0.0, 0.00872665)",-0.652667045593,0.0371818132699,-1.2238060236,"(0.000872665, 0.0, 0.0, 0.0, 0.000872665, 0.0, 0.0, 0.0, 0.000872665)",-0.0252808388695,-0.59423001498,-0.708584303856,"(0.003, 0.0, 0.0, 0.0, 0.003, 0.0, 0.0, 0.0, 0.003)"
2022/03/09/18:25:51.860674,15700,1646846751,860378784,imu_iphone,-0.026421058974,0.00763503839274,-0.891031799138,0.453107014684,"(0.00872665, 0.0, 0.0, 0.0, 0.00872665, 0.0, 0.0, 0.0, 0.00872665)",-0.635122716427,0.0150659549981,-1.26006281376,"(0.000872665, 0.0, 0.0, 0.0, 0.000872665, 0.0, 0.0, 0.0, 0.000872665)",0.00491326913238,-0.770187644362,-0.691432666183,"(0.003, 0.0, 0.0, 0.0, 0.003, 0.0, 0.0, 0.0, 0.003)"
2022/03/09/18:25:51.890042,15701,1646846751,889547776,imu_iphone,-0.0344041354353,0.00518182978204,-0.899466171886,0.435603156253,"(0.00872665, 0.0, 0.0, 0.0, 0.00872665, 0.0, 0.0, 0.0, 0.00872665)",-0.616885244846,-0.00682537117973,-1.27302539349,"(0.000872665, 0.0, 0.0, 0.0, 0.000872665, 0.0, 0.0, 0.0, 0.000872665)",0.0596095496044,-0.934389592856,-0.645406892896,"(0.003, 0.0, 0.0, 0.0, 0.003, 0.0, 0.0, 0.0, 0.003)"
2022/03/09/18:25:51.921544,15702,1646846751,919906529,imu_iphone,-0.042451413168,0.00373526878859,-0.907525146645,0.417830149097,"(0.00872665, 0.0, 0.0, 0.0, 0.00872665, 0.0, 0.0, 0.0, 0.00872665)",-0.600662767887,-0.0251759923995,-1.26413369179,"(0.000872665, 0.0, 0.0, 0.0, 0.000872665, 0.0, 0.0, 0.0, 0.000872665)",0.123522686474,-1.11669064723,-0.619267500043,"(0.003, 0.0, 0.0, 0.0, 0.003, 0.0, 0.0, 0.0, 0.003)"
2022/03/09/18:25:51.950002,15703,1646846751,949715742,imu_iphone,-0.0504520851754,0.00322248672081,-0.915094536961,0.400057734713,"(0.00872665, 0.0, 0.0, 0.0, 0.00872665, 0.0, 0.0, 0.0, 0.00872665)",-0.57964771986,-0.0391083657742,-1.23678398132,"(0.000872665, 0.0, 0.0, 0.0, 0.000872665, 0.0, 0.0, 0.0, 0.000872665)",0.200288843885,-1.29382247061,-0.578545736074,"(0.003, 0.0, 0.0, 0.0, 0.003, 0.0, 0.0, 0.0, 0.003)"
2022/03/09/18:25:51.979229,15704,1646846751,978972926,imu_iphone,-0.0583124771691,0.00354811691832,-0.922109433752,0.38249347453,"(0.00872665, 0.0, 0.0, 0.0, 0.00872665, 0.0, 0.0, 0.0, 0.00872665)",-0.554545402527,-0.0494608134031,-1.19591748714,"(0.000872665, 0.0, 0.0, 0.0, 0.000872665, 0.0, 0.0, 0.0, 0.000872665)",0.280558506735,-1.48445266441,-0.55434820354,"(0.003, 0.0, 0.0, 0.0, 0.003, 0.0, 0.0, 0.0, 0.003)"
2022/03/09/18:25:52.009053,15705,1646846752,8786659,imu_iphone,-0.0658733909917,0.00463075938659,-0.928522002117,0.365357556389,"(0.00872665, 0.0, 0.0, 0.0, 0.00872665, 0.0, 0.0, 0.0, 0.00872665)",-0.528594493866,-0.0617001205683,-1.14401984215,"(0.000872665, 0.0, 0.0, 0.0, 0.000872665, 0.0, 0.0, 0.0, 0.000872665)",0.362864864431,-1.69271806061,-0.504686046839,"(0.003, 0.0, 0.0, 0.0, 0.003, 0.0, 0.0, 0.0, 0.003)"
2022/03/09/18:25:52.040962,15706,1646846752,40664738,imu_iphone,-0.0730142750564,0.00637030187147,-0.934311976992,0.34884017048,"(0.00872665, 0.0, 0.0, 0.0, 0.00872665, 0.0, 0.0, 0.0, 0.00872665)",-0.491069734097,-0.0679695010185,-1.0819991827,"(0.000872665, 0.0, 0.0, 0.0, 0.000872665, 0.0, 0.0, 0.0, 0.000872665)",0.431936159134,-1.88371604428,-0.456711396575,"(0.003, 0.0, 0.0, 0.0, 0.003, 0.0, 0.0, 0.0, 0.003)"
2022/03/09/18:25:52.069309,15707,1646846752,68915687,imu_iphone,-0.0795874174266,0.0086477729512,-0.939515236575,0.333019788082,"(0.00872665, 0.0, 0.0, 0.0, 0.00872665, 0.0, 0.0, 0.0, 0.00872665)",-0.448148280382,-0.0748738199472,-1.01963865757,"(0.000872665, 0.0, 0.0, 0.0, 0.000872665, 0.0, 0.0, 0.0, 0.000872665)",0.516407594606,-2.07173107088,-0.41464243412,"(0.003, 0.0, 0.0, 0.0, 0.003, 0.0, 0.0, 0.0, 0.003)"
2022/03/09/18:25:52.098719,15708,1646846752,98393702,imu_iphone,-0.0854640005623,0.0113305605851,-0.944146904639,0.318047395,"(0.00872665, 0.0, 0.0, 0.0, 0.00872665, 0.0, 0.0, 0.0, 0.00872665)",-0.400050580502,-0.0728572309017,-0.951570212841,"(0.000872665, 0.0, 0.0, 0.0, 0.000872665, 0.0, 0.0, 0.0, 0.000872665)",0.590209981129,-2.25250768304,-0.361975393295,"(0.003, 0.0, 0.0, 0.0, 0.003, 0.0, 0.0, 0.0, 0.003)"
2022/03/09/18:25:52.128301,15709,1646846752,128033956,imu_iphone,-0.0905111836122,0.0143303938245,-0.948269949459,0.30395142442,"(0.00872665, 0.0, 0.0, 0.0, 0.00872665, 0.0, 0.0, 0.0, 0.00872665)",-0.343936085701,-0.0690726861358,-0.886364936829,"(0.000872665, 0.0, 0.0, 0.0, 0.000872665, 0.0, 0.0, 0.0, 0.000872665)",0.656694577262,-2.41745427445,-0.316546036005,"(0.003, 0.0, 0.0, 0.0, 0.003, 0.0, 0.0, 0.0, 0.003)"
2022/03/09/18:25:52.161658,15710,1646846752,161257743,imu_iphone,-0.0946077256913,0.0175071166138,-0.951930058459,0.290812728247,"(0.00872665, 0.0, 0.0, 0.0, 0.00872665, 0.0, 0.0, 0.0, 0.00872665)",-0.280275344849,-0.0612935945392,-0.81957924366,"(0.000872665, 0.0, 0.0, 0.0, 0.000872665, 0.0, 0.0, 0.0, 0.000872665)",0.744489716291,-2.55563845217,-0.271587964296,"(0.003, 0.0, 0.0, 0.0, 0.003, 0.0, 0.0, 0.0, 0.003)"
2022/03/09/18:25:52.189520,15711,1646846752,188528234,imu_iphone,-0.0976844672786,0.0207043798531,-0.955156093414,0.278757799392,"(0.00872665, 0.0, 0.0, 0.0, 0.00872665, 0.0, 0.0, 0.0, 0.00872665)",-0.214514568448,-0.0500211268663,-0.749118626118,"(0.000872665, 0.0, 0.0, 0.0, 0.000872665, 0.0, 0.0, 0.0, 0.000872665)",0.829005663693,-2.66746148139,-0.232602823377,"(0.003, 0.0, 0.0, 0.0, 0.003, 0.0, 0.0, 0.0, 0.003)"
2022/03/09/18:25:52.219518,15712,1646846752,217662106,imu_iphone,-0.0996680472376,0.0237618649099,-0.957986775512,0.267886155072,"(0.00872665, 0.0, 0.0, 0.0, 0.00872665, 0.0, 0.0, 0.0, 0.00872665)",-0.144414931536,-0.0303593594581,-0.673729240894,"(0.000872665, 0.0, 0.0, 0.0, 0.000872665, 0.0, 0.0, 0.0, 0.000872665)",0.912538986504,-2.73653668642,-0.19684651494,"(0.003, 0.0, 0.0, 0.0, 0.003, 0.0, 0.0, 0.0, 0.003)"
2022/03/09/18:25:52.249417,15713,1646846752,248636721,imu_iphone,-0.100570450197,0.0264970177737,-0.960435496992,0.258354695551,"(0.00872665, 0.0, 0.0, 0.0, 0.00872665, 0.0, 0.0, 0.0, 0.00872665)",-0.0696060433984,-0.00816666334867,-0.585908770561,"(0.000872665, 0.0, 0.0, 0.0, 0.000872665, 0.0, 0.0, 0.0, 0.000872665)",0.986932307258,-2.7707636556,-0.146207288504,"(0.003, 0.0, 0.0, 0.0, 0.003, 0.0, 0.0, 0.0, 0.003)"
2022/03/09/18:25:52.281810,15714,1646846752,280741968,imu_iphone,-0.100402572422,0.0287238671731,-0.962500179417,0.250375053725,"(0.00872665, 0.0, 0.0, 0.0, 0.00872665, 0.0, 0.0, 0.0, 0.00872665)",-0.0034323502332,0.0207994580269,-0.488656103611,"(0.000872665, 0.0, 0.0, 0.0, 0.000872665, 0.0, 0.0, 0.0, 0.000872665)",1.06168778993,-2.78104335308,-0.150652341843,"(0.003, 0.0, 0.0, 0.0, 0.003, 0.0, 0.0, 0.0, 0.003)"
2022/03/09/18:25:52.307171,15715,1646846752,306901729,imu_iphone,-0.0992146210722,0.0302680917429,-0.964184962784,0.244105835919,"(0.00872665, 0.0, 0.0, 0.0, 0.00872665, 0.0, 0.0, 0.0, 0.00872665)",0.0673624500632,0.053925242275,-0.382583528757,"(0.000872665, 0.0, 0.0, 0.0, 0.000872665, 0.0, 0.0, 0.0, 0.000872665)",1.1137774913,-2.74245874643,-0.130573003292,"(0.003, 0.0, 0.0, 0.0, 0.003, 0.0, 0.0, 0.0, 0.003)"
2022/03/09/18:25:52.337013,15716,1646846752,336582870,imu_iphone,-0.0970668040867,0.0310512594307,-0.965481943179,0.239704969135,"(0.00872665, 0.0, 0.0, 0.0, 0.00872665, 0.0, 0.0, 0.0, 0.00872665)",0.135274857283,0.0848768427968,-0.267363727093,"(0.000872665, 0.0, 0.0, 0.0, 0.000872665, 0.0, 0.0, 0.0, 0.000872665)",1.11595440969,-2.68317002624,-0.151235309243,"(0.003, 0.0, 0.0, 0.0, 0.003, 0.0, 0.0, 0.0, 0.003)"
2022/03/09/18:25:52.371792,15717,1646846752,370690136,imu_iphone,-0.0940228503052,0.0310276864652,-0.966392463672,0.237239525481,"(0.00872665, 0.0, 0.0, 0.0, 0.00872665, 0.0, 0.0, 0.0, 0.00872665)",0.200317785144,0.115919612348,-0.150333955884,"(0.000872665, 0.0, 0.0, 0.0, 0.000872665, 0.0, 0.0, 0.0, 0.000872665)",1.07833751723,-2.61263418674,-0.171079589725,"(0.003, 0.0, 0.0, 0.0, 0.003, 0.0, 0.0, 0.0, 0.003)"
2022/03/09/18:25:52.401071,15718,1646846752,399975559,imu_iphone,-0.0901137189384,0.0302688518635,-0.966935363339,0.236641749043,"(0.00872665, 0.0, 0.0, 0.0, 0.00872665, 0.0, 0.0, 0.0, 0.00872665)",0.262942910194,0.145632714033,-0.0347256995738,"(0.000872665, 0.0, 0.0, 0.0, 0.000872665, 0.0, 0.0, 0.0, 0.000872665)",1.00849544987,-2.50638852417,-0.197807212472,"(0.003, 0.0, 0.0, 0.0, 0.003, 0.0, 0.0, 0.0, 0.003)"
2022/03/09/18:25:52.426659,15719,1646846752,426340289,imu_iphone,-0.0854079918056,0.0288495472204,-0.967090025204,0.237928690394,"(0.00872665, 0.0, 0.0, 0.0, 0.00872665, 0.0, 0.0, 0.0, 0.00872665)",0.318619340658,0.166634052992,0.0818118900061,"(0.000872665, 0.0, 0.0, 0.0, 0.000872665, 0.0, 0.0, 0.0, 0.000872665)",0.926938047409,-2.36665293396,-0.243423680663,"(0.003, 0.0, 0.0, 0.0, 0.003, 0.0, 0.0, 0.0, 0.003)"
2022/03/09/18:25:52.458474,15720,1646846752,458158260,imu_iphone,-0.0799830234165,0.0269178625517,-0.966846586559,0.241010005395,"(0.00872665, 0.0, 0.0, 0.0, 0.00872665, 0.0, 0.0, 0.0, 0.00872665)",0.372849702835,0.188153550029,0.197191148996,"(0.000872665, 0.0, 0.0, 0.0, 0.000872665, 0.0, 0.0, 0.0, 0.000872665)",0.824012799338,-2.21593978107,-0.291814652681,"(0.003, 0.0, 0.0, 0.0, 0.003, 0.0, 0.0, 0.0, 0.003)"
2022/03/09/18:25:52.487630,15721,1646846752,487347939,imu_iphone,-0.0738734917037,0.0245823382059,-0.966193647952,0.245780899439,"(0.00872665, 0.0, 0.0, 0.0, 0.00872665, 0.0, 0.0, 0.0, 0.00872665)",0.420088082552,0.202005177736,0.307960867882,"(0.000872665, 0.0, 0.0, 0.0, 0.000872665, 0.0, 0.0, 0.0, 0.000872665)",0.720296569169,-2.02970376983,-0.340617268682,"(0.003, 0.0, 0.0, 0.0, 0.003, 0.0, 0.0, 0.0, 0.003)"
2022/03/09/18:25:52.520107,15722,1646846752,519426087,imu_iphone,-0.0671479925471,0.0220447808524,-0.965119954951,0.252088570326,"(0.00872665, 0.0, 0.0, 0.0, 0.00872665, 0.0, 0.0, 0.0, 0.00872665)",0.462840139866,0.209781035781,0.409293204546,"(0.000872665, 0.0, 0.0, 0.0, 0.000872665, 0.0, 0.0, 0.0, 0.000872665)",0.617519182563,-1.85252451092,-0.383155177832,"(0.003, 0.0, 0.0, 0.0, 0.003, 0.0, 0.0, 0.0, 0.003)"
2022/03/09/18:25:52.547045,15723,1646846752,545743160,imu_iphone,-0.0598558602386,0.019463477824,-0.963612138362,0.259788559849,"(0.00872665, 0.0, 0.0, 0.0, 0.00872665, 0.0, 0.0, 0.0, 0.00872665)",0.500974595547,0.212920427322,0.504843831062,"(0.000872665, 0.0, 0.0, 0.0, 0.000872665, 0.0, 0.0, 0.0, 0.000872665)",0.49912775673,-1.65019944727,-0.442067629695,"(0.003, 0.0, 0.0, 0.0, 0.003, 0.0, 0.0, 0.0, 0.003)"
2022/03/09/18:25:52.577099,15724,1646846752,575105125,imu_iphone,-0.0520490739492,0.0170010716359,-0.961658732323,0.268727259523,"(0.00872665, 0.0, 0.0, 0.0, 0.00872665, 0.0, 0.0, 0.0, 0.00872665)",0.533084392548,0.212423145771,0.592094242573,"(0.000872665, 0.0, 0.0, 0.0, 0.000872665, 0.0, 0.0, 0.0, 0.000872665)",0.39461371053,-1.440273588,-0.474509151578,"(0.003, 0.0, 0.0, 0.0, 0.003, 0.0, 0.0, 0.0, 0.003)"
2022/03/09/18:25:52.609960,15725,1646846752,607988553,imu_iphone,-0.0438216594286,0.0148147784982,-0.95925550449,0.278727575974,"(0.00872665, 0.0, 0.0, 0.0, 0.00872665, 0.0, 0.0, 0.0, 0.00872665)",0.559523820877,0.208528488874,0.673643708229,"(0.000872665, 0.0, 0.0, 0.0, 0.000872665, 0.0, 0.0, 0.0, 0.000872665)",0.288245950788,-1.22528279744,-0.529070105553,"(0.003, 0.0, 0.0, 0.0, 0.003, 0.0, 0.0, 0.0, 0.003)"
2022/03/09/18:25:52.640759,15726,1646846752,640444749,imu_iphone,-0.035220965851,0.0130534993989,-0.956437508068,0.289510591996,"(0.00872665, 0.0, 0.0, 0.0, 0.00872665, 0.0, 0.0, 0.0, 0.00872665)",0.584939002991,0.203076601028,0.726331591606,"(0.000872665, 0.0, 0.0, 0.0, 0.000872665, 0.0, 0.0, 0.0, 0.000872665)",0.150127773508,-0.986904825345,-0.536324161291,"(0.003, 0.0, 0.0, 0.0, 0.003, 0.0, 0.0, 0.0, 0.003)"
2022/03/09/18:25:52.665390,15727,1646846752,665080669,imu_iphone,-0.0263298989423,0.0118064451135,-0.95316219794,0.301080003808,"(0.00872665, 0.0, 0.0, 0.0, 0.00872665, 0.0, 0.0, 0.0, 0.00872665)",0.603925704956,0.187547639012,0.794912397861,"(0.000872665, 0.0, 0.0, 0.0, 0.000872665, 0.0, 0.0, 0.0, 0.000872665)",0.103445577174,-0.815437930673,-0.611798266768,"(0.003, 0.0, 0.0, 0.0, 0.003, 0.0, 0.0, 0.0, 0.003)"
2022/03/09/18:25:52.694713,15728,1646846752,694379410,imu_iphone,-0.0172454434539,0.0112227434834,-0.949436966412,0.313282766074,"(0.00872665, 0.0, 0.0, 0.0, 0.00872665, 0.0, 0.0, 0.0, 0.00872665)",0.620754718781,0.170613229275,0.844618856907,"(0.000872665, 0.0, 0.0, 0.0, 0.000872665, 0.0, 0.0, 0.0, 0.000872665)",0.00984199684113,-0.588168096878,-0.616491242051,"(0.003, 0.0, 0.0, 0.0, 0.003, 0.0, 0.0, 0.0, 0.003)"
2022/03/09/18:25:52.727314,15729,1646846752,727033011,imu_iphone,-0.00803424452912,0.0113831131854,-0.945292140557,0.325927361004,"(0.00872665, 0.0, 0.0, 0.0, 0.00872665, 0.0, 0.0, 0.0, 0.00872665)",0.636353194714,0.156398326159,0.879973053932,"(0.000872665, 0.0, 0.0, 0.0, 0.000872665, 0.0, 0.0, 0.0, 0.000872665)",-0.0705629376881,-0.376044232696,-0.648518196344,"(0.003, 0.0, 0.0, 0.0, 0.003, 0.0, 0.0, 0.0, 0.003)"
2022/03/09/18:25:52.754494,15730,1646846752,754003893,imu_iphone,0.00121677299636,0.0123562968162,-0.94075476491,0.338860315899,"(0.00872665, 0.0, 0.0, 0.0, 0.00872665, 0.0, 0.0, 0.0, 0.00872665)",0.643910467625,0.137646719813,0.9110699296,"(0.000872665, 0.0, 0.0, 0.0, 0.000872665, 0.0, 0.0, 0.0, 0.000872665)",-0.140921990275,-0.169921329394,-0.677372451425,"(0.003, 0.0, 0.0, 0.0, 0.003, 0.0, 0.0, 0.0, 0.003)"
2022/03/09/18:25:52.784349,15731,1646846752,783905047,imu_iphone,0.0103731307047,0.0141850150875,-0.935831124255,0.352010355505,"(0.00872665, 0.0, 0.0, 0.0, 0.00872665, 0.0, 0.0, 0.0, 0.00872665)",0.653117239475,0.114276222885,0.934364080429,"(0.000872665, 0.0, 0.0, 0.0, 0.000872665, 0.0, 0.0, 0.0, 0.000872665)",-0.178826328199,0.0607516204566,-0.686543809175,"(0.003, 0.0, 0.0, 0.0, 0.003, 0.0, 0.0, 0.0, 0.003)"
2022/03/09/18:25:52.814419,15732,1646846752,813062344,imu_iphone,0.0193694374963,0.016863745884,-0.930543873826,0.365278712561,"(0.00872665, 0.0, 0.0, 0.0, 0.00872665, 0.0, 0.0, 0.0, 0.00872665)",0.655275166035,0.0905456095934,0.947581112385,"(0.000872665, 0.0, 0.0, 0.0, 0.000872665, 0.0, 0.0, 0.0, 0.000872665)",-0.209493658673,0.2821406902,-0.678606213927,"(0.003, 0.0, 0.0, 0.0, 0.003, 0.0, 0.0, 0.0, 0.003)"
2022/03/09/18:25:52.848656,15733,1646846752,847980030,imu_iphone,0.0280775959594,0.0203921772168,-0.924897816414,0.378628890745,"(0.00872665, 0.0, 0.0, 0.0, 0.00872665, 0.0, 0.0, 0.0, 0.00872665)",0.655751645565,0.0688661038876,0.963192224503,"(0.000872665, 0.0, 0.0, 0.0, 0.000872665, 0.0, 0.0, 0.0, 0.000872665)",-0.21260616811,0.493494841531,-0.682106357217,"(0.003, 0.0, 0.0, 0.0, 0.003, 0.0, 0.0, 0.0, 0.003)"
2022/03/09/18:25:52.877268,15734,1646846752,873779595,imu_iphone,0.036422255105,0.0247360599584,-0.918898846213,0.392028643212,"(0.00872665, 0.0, 0.0, 0.0, 0.00872665, 0.0, 0.0, 0.0, 0.00872665)",0.654592514038,0.0476459600031,0.973995029926,"(0.000872665, 0.0, 0.0, 0.0, 0.000872665, 0.0, 0.0, 0.0, 0.000872665)",-0.203616512585,0.732845717221,-0.677801637053,"(0.003, 0.0, 0.0, 0.0, 0.003, 0.0, 0.0, 0.0, 0.003)"
2022/03/09/18:25:52.903399,15735,1646846752,903020274,imu_iphone,0.0442652621798,0.0298490529758,-0.912523941394,0.40552395365,"(0.00872665, 0.0, 0.0, 0.0, 0.00872665, 0.0, 0.0, 0.0, 0.00872665)",0.63844537735,0.027589969337,0.977994561195,"(0.000872665, 0.0, 0.0, 0.0, 0.000872665, 0.0, 0.0, 0.0, 0.000872665)",-0.19125617478,0.961445098221,-0.651535359621,"(0.003, 0.0, 0.0, 0.0, 0.003, 0.0, 0.0, 0.0, 0.003)"
2022/03/09/18:25:52.932710,15736,1646846752,932374365,imu_iphone,0.0514685788338,0.0356351992588,-0.905808338257,0.419037435453,"(0.00872665, 0.0, 0.0, 0.0, 0.00872665, 0.0, 0.0, 0.0, 0.00872665)",0.621103167534,0.00582633446902,0.982545852661,"(0.000872665, 0.0, 0.0, 0.0, 0.000872665, 0.0, 0.0, 0.0, 0.000872665)",-0.152389111072,1.21141429827,-0.643759732246,"(0.003, 0.0, 0.0, 0.0, 0.003, 0.0, 0.0, 0.0, 0.003)"
2022/03/09/18:25:52.970627,15737,1646846752,970272032,imu_iphone,0.0579087819533,0.0420062640955,-0.898762887429,0.432559035196,"(0.00872665, 0.0, 0.0, 0.0, 0.00872665, 0.0, 0.0, 0.0, 0.00872665)",0.599165558815,-0.0133344987407,0.993241608143,"(0.000872665, 0.0, 0.0, 0.0, 0.000872665, 0.0, 0.0, 0.0, 0.000872665)",-0.105047604628,1.44844887257,-0.587651020288,"(0.003, 0.0, 0.0, 0.0, 0.003, 0.0, 0.0, 0.0, 0.003)"
2022/03/09/18:25:52.992932,15738,1646846752,992500787,imu_iphone,0.0634478482263,0.0488715510181,-0.891353795492,0.446177490825,"(0.00872665, 0.0, 0.0, 0.0, 0.00872665, 0.0, 0.0, 0.0, 0.00872665)",0.563527941704,-0.0310474485159,0.996479213238,"(0.000872665, 0.0, 0.0, 0.0, 0.000872665, 0.0, 0.0, 0.0, 0.000872665)",-0.0427787047997,1.6844141373,-0.549163477421,"(0.003, 0.0, 0.0, 0.0, 0.003, 0.0, 0.0, 0.0, 0.003)"
2022/03/09/18:25:53.022773,15739,1646846753,22396541,imu_iphone,0.0679874204919,0.056091173408,-0.883590384526,0.45989077322,"(0.00872665, 0.0, 0.0, 0.0, 0.00872665, 0.0, 0.0, 0.0, 0.00872665)",0.524984836578,-0.0468261092901,1.00856137276,"(0.000872665, 0.0, 0.0, 0.0, 0.000872665, 0.0, 0.0, 0.0, 0.000872665)",0.0390591447428,1.88892167419,-0.514215254188,"(0.003, 0.0, 0.0, 0.0, 0.003, 0.0, 0.0, 0.0, 0.003)"
2022/03/09/18:25:53.052991,15740,1646846753,51535382,imu_iphone,0.0714277060721,0.0635063352263,-0.875491905469,0.473686554221,"(0.00872665, 0.0, 0.0, 0.0, 0.00872665, 0.0, 0.0, 0.0, 0.00872665)",0.477649778128,-0.0587051250041,1.01052606106,"(0.000872665, 0.0, 0.0, 0.0, 0.000872665, 0.0, 0.0, 0.0, 0.000872665)",0.12495554667,2.10408810049,-0.454505242109,"(0.003, 0.0, 0.0, 0.0, 0.003, 0.0, 0.0, 0.0, 0.003)"
2022/03/09/18:25:53.089195,15741,1646846753,88877402,imu_iphone,0.0737171111888,0.0709023355423,-0.867146761122,0.487437320082,"(0.00872665, 0.0, 0.0, 0.0, 0.00872665, 0.0, 0.0, 0.0, 0.00872665)",0.424935132265,-0.0688551664352,1.00728905201,"(0.000872665, 0.0, 0.0, 0.0, 0.000872665, 0.0, 0.0, 0.0, 0.000872665)",0.226466828361,2.28177884459,-0.406882009506,"(0.003, 0.0, 0.0, 0.0, 0.003, 0.0, 0.0, 0.0, 0.003)"
2022/03/09/18:25:53.112142,15742,1646846753,111686228,imu_iphone,0.0748304827022,0.0781178751323,-0.858623714538,0.50106218504,"(0.00872665, 0.0, 0.0, 0.0, 0.00872665, 0.0, 0.0, 0.0, 0.00872665)",0.363267123699,-0.0679722726345,0.999829292297,"(0.000872665, 0.0, 0.0, 0.0, 0.000872665, 0.0, 0.0, 0.0, 0.000872665)",0.319584066533,2.44336036339,-0.341261047125,"(0.003, 0.0, 0.0, 0.0, 0.003, 0.0, 0.0, 0.0, 0.003)"
2022/03/09/18:25:53.141871,15743,1646846753,141491802,imu_iphone,0.0748094628165,0.0849159248739,-0.850047924749,0.514403883739,"(0.00872665, 0.0, 0.0, 0.0, 0.00872665, 0.0, 0.0, 0.0, 0.00872665)",0.30120909214,-0.0671019479632,0.976338028908,"(0.000872665, 0.0, 0.0, 0.0, 0.000872665, 0.0, 0.0, 0.0, 0.000872665)",0.419302664995,2.5634860003,-0.293937776685,"(0.003, 0.0, 0.0, 0.0, 0.003, 0.0, 0.0, 0.0, 0.003)"
2022/03/09/18:25:53.171804,15744,1646846753,170547529,imu_iphone,0.0737802296949,0.0911138202694,-0.841567271154,0.527275333753,"(0.00872665, 0.0, 0.0, 0.0, 0.00872665, 0.0, 0.0, 0.0, 0.00872665)",0.237712949514,-0.0645357593894,0.944896638393,"(0.000872665, 0.0, 0.0, 0.0, 0.000872665, 0.0, 0.0, 0.0, 0.000872665)",0.518425834179,2.64595220625,-0.244683755636,"(0.003, 0.0, 0.0, 0.0, 0.003, 0.0, 0.0, 0.0, 0.003)"
2022/03/09/18:25:53.208284,15745,1646846753,207905449,imu_iphone,0.0718742296422,0.0965519977993,-0.833361587243,0.539462947515,"(0.00872665, 0.0, 0.0, 0.0, 0.00872665, 0.0, 0.0, 0.0, 0.00872665)",0.170182108879,-0.0564455538988,0.892209649086,"(0.000872665, 0.0, 0.0, 0.0, 0.000872665, 0.0, 0.0, 0.0, 0.000872665)",0.597899654433,2.69557811022,-0.226777827144,"(0.003, 0.0, 0.0, 0.0, 0.003, 0.0, 0.0, 0.0, 0.003)"
2022/03/09/18:25:53.231016,15746,1646846753,230736255,imu_iphone,0.0692669986569,0.101046174965,-0.825649690964,0.550721654952,"(0.00872665, 0.0, 0.0, 0.0, 0.00872665, 0.0, 0.0, 0.0, 0.00872665)",0.101687073708,-0.0401660986245,0.823155999184,"(0.000872665, 0.0, 0.0, 0.0, 0.000872665, 0.0, 0.0, 0.0, 0.000872665)",0.671680917889,2.71729583859,-0.202852190137,"(0.003, 0.0, 0.0, 0.0, 0.003, 0.0, 0.0, 0.0, 0.003)"
2022/03/09/18:25:53.260873,15747,1646846753,260558011,imu_iphone,0.0661996227099,0.104468772728,-0.818650682595,0.560816320523,"(0.00872665, 0.0, 0.0, 0.0, 0.00872665, 0.0, 0.0, 0.0, 0.00872665)",0.0418882593513,-0.0270820483565,0.737436115742,"(0.000872665, 0.0, 0.0, 0.0, 0.000872665, 0.0, 0.0, 0.0, 0.000872665)",0.729517701343,2.70975234568,-0.179460403919,"(0.003, 0.0, 0.0, 0.0, 0.003, 0.0, 0.0, 0.0, 0.003)"
2022/03/09/18:25:53.291752,15748,1646846753,291384516,imu_iphone,0.0629033971859,0.106790531671,-0.812590801318,0.569504288465,"(0.00872665, 0.0, 0.0, 0.0, 0.00872665, 0.0, 0.0, 0.0, 0.00872665)",-0.0185423400253,-0.0109048876911,0.627540707588,"(0.000872665, 0.0, 0.0, 0.0, 0.000872665, 0.0, 0.0, 0.0, 0.000872665)",0.757804922685,2.67287161767,-0.18492579639,"(0.003, 0.0, 0.0, 0.0, 0.003, 0.0, 0.0, 0.0, 0.003)"
2022/03/09/18:25:53.322360,15749,1646846753,320594570,imu_iphone,0.0595314470805,0.107966496784,-0.807668555946,0.576602762841,"(0.00872665, 0.0, 0.0, 0.0, 0.00872665, 0.0, 0.0, 0.0, 0.00872665)",-0.0805618837476,0.00738976802677,0.507853865623,"(0.000872665, 0.0, 0.0, 0.0, 0.000872665, 0.0, 0.0, 0.0, 0.000872665)",0.778747529536,2.62387662828,-0.163817932606,"(0.003, 0.0, 0.0, 0.0, 0.003, 0.0, 0.0, 0.0, 0.003)"
2022/03/09/18:25:53.350744,15750,1646846753,349505949,imu_iphone,0.056288723773,0.107971896113,-0.804092877347,0.58190058758,"(0.00872665, 0.0, 0.0, 0.0, 0.00872665, 0.0, 0.0, 0.0, 0.00872665)",-0.136084601283,0.0236058495939,0.361754506826,"(0.000872665, 0.0, 0.0, 0.0, 0.000872665, 0.0, 0.0, 0.0, 0.000872665)",0.795505941957,2.56934812635,-0.195840209126,"(0.003, 0.0, 0.0, 0.0, 0.003, 0.0, 0.0, 0.0, 0.003)"
2022/03/09/18:25:53.380221,15751,1646846753,379885722,imu_iphone,0.0532845936272,0.106818581415,-0.802012654211,0.585257417921,"(0.00872665, 0.0, 0.0, 0.0, 0.00872665, 0.0, 0.0, 0.0, 0.00872665)",-0.191954389215,0.0427154675126,0.212390601635,"(0.000872665, 0.0, 0.0, 0.0, 0.000872665, 0.0, 0.0, 0.0, 0.000872665)",0.805835267678,2.51065348327,-0.189910547733,"(0.003, 0.0, 0.0, 0.0, 0.003, 0.0, 0.0, 0.0, 0.003)"
2022/03/09/18:25:53.410398,15752,1646846753,409237023,imu_iphone,0.0505568230055,0.104530160172,-0.801474625439,0.586648001819,"(0.00872665, 0.0, 0.0, 0.0, 0.00872665, 0.0, 0.0, 0.0, 0.00872665)",-0.242496609688,0.0624396167696,0.0629523470998,"(0.000872665, 0.0, 0.0, 0.0, 0.000872665, 0.0, 0.0, 0.0, 0.000872665)",0.796270319223,2.43014960289,-0.216926438212,"(0.003, 0.0, 0.0, 0.0, 0.003, 0.0, 0.0, 0.0, 0.003)"
2022/03/09/18:25:53.441805,15753,1646846753,440928103,imu_iphone,0.0480568015168,0.101166895147,-0.80242438667,0.586149218913,"(0.00872665, 0.0, 0.0, 0.0, 0.00872665, 0.0, 0.0, 0.0, 0.00872665)",-0.304317653179,0.0791477486491,-0.0831754133105,"(0.000872665, 0.0, 0.0, 0.0, 0.000872665, 0.0, 0.0, 0.0, 0.000872665)",0.78858473897,2.33796035439,-0.246865351796,"(0.003, 0.0, 0.0, 0.0, 0.003, 0.0, 0.0, 0.0, 0.003)"
2022/03/09/18:25:53.471313,15754,1646846753,469065411,imu_iphone,0.0456435387862,0.0968399780168,-0.804711244808,0.583933642209,"(0.00872665, 0.0, 0.0, 0.0, 0.00872665, 0.0, 0.0, 0.0, 0.00872665)",-0.354425728321,0.096858792007,-0.206662714481,"(0.000872665, 0.0, 0.0, 0.0, 0.000872665, 0.0, 0.0, 0.0, 0.000872665)",0.754545830861,2.21361638993,-0.280555254221,"(0.003, 0.0, 0.0, 0.0, 0.003, 0.0, 0.0, 0.0, 0.003)"
2022/03/09/18:25:53.499276,15755,1646846753,498893027,imu_iphone,0.0432130228069,0.0916766812559,-0.808146007573,0.580196562569,"(0.00872665, 0.0, 0.0, 0.0, 0.00872665, 0.0, 0.0, 0.0, 0.00872665)",-0.406872034073,0.114511363208,-0.320204854012,"(0.000872665, 0.0, 0.0, 0.0, 0.000872665, 0.0, 0.0, 0.0, 0.000872665)",0.712014134377,2.07949602708,-0.314550966024,"(0.003, 0.0, 0.0, 0.0, 0.003, 0.0, 0.0, 0.0, 0.003)"
