time,.header.seq,.header.stamp.secs,.header.stamp.nsecs,.header.frame_id,.orientation.x,.orientation.y,.orientation.z,.orientation.w,.orientation_covariance,.angular_velocity.x,.angular_velocity.y,.angular_velocity.z,.angular_velocity_covariance,.linear_acceleration.x,.linear_acceleration.y,.linear_acceleration.z,.linear_acceleration_covariance
2022/01/11/19:04:49.690216,11883,1641924289,689682001,imu_iphone,-0.114097641111,-0.0710643795619,-0.521778324909,0.842424454717,"(0.00872665, 0.0, 0.0, 0.0, 0.00872665, 0.0, 0.0, 0.0, 0.00872665)",-0.776366233826,-0.160483628511,-2.19118213654,"(0.000872665, 0.0, 0.0, 0.0, 0.000872665, 0.0, 0.0, 0.0, 0.000872665)",1.05191204935,-2.91803250611,-0.966728934646,"(0.003, 0.0, 0.0, 0.0, 0.003, 0.0, 0.0, 0.0, 0.003)"
2022/01/11/19:04:49.719881,11884,1641924289,719514144,imu_iphone,-0.128933606304,-0.0669421417029,-0.55037342524,0.822182441809,"(0.00872665, 0.0, 0.0, 0.0, 0.00872665, 0.0, 0.0, 0.0, 0.00872665)",-0.704875648022,-0.177737116814,-2.01268172264,"(0.000872665, 0.0, 0.0, 0.0, 0.000872665, 0.0, 0.0, 0.0, 0.000872665)",1.36507590964,-3.20275653273,-0.848928004503,"(0.003, 0.0, 0.0, 0.0, 0.003, 0.0, 0.0, 0.0, 0.003)"
2022/01/11/19:04:49.749890,11885,1641924289,749427233,imu_iphone,-0.142428152542,-0.0612034480189,-0.5760371039,0.802589318546,"(0.00872665, 0.0, 0.0, 0.0, 0.00872665, 0.0, 0.0, 0.0, 0.00872665)",-0.615982055664,-0.17251560092,-1.82509791851,"(0.000872665, 0.0, 0.0, 0.0, 0.000872665, 0.0, 0.0, 0.0, 0.000872665)",1.71842753693,-3.4500373292,-0.741389522552,"(0.003, 0.0, 0.0, 0.0, 0.003, 0.0, 0.0, 0.0, 0.003)"
2022/01/11/19:04:49.779467,11886,1641924289,779124227,imu_iphone,-0.154010938922,-0.054426524641,-0.598605430719,0.784212931812,"(0.00872665, 0.0, 0.0, 0.0, 0.00872665, 0.0, 0.0, 0.0, 0.00872665)",-0.51720058918,-0.148908942938,-1.62309277058,"(0.000872665, 0.0, 0.0, 0.0, 0.000872665, 0.0, 0.0, 0.0, 0.000872665)",2.02292363092,-3.64255222678,-0.610611866713,"(0.003, 0.0, 0.0, 0.0, 0.003, 0.0, 0.0, 0.0, 0.003)"
2022/01/11/19:04:49.809240,11887,1641924289,808921892,imu_iphone,-0.163368428521,-0.0473001758178,-0.617966032226,0.767588062013,"(0.00872665, 0.0, 0.0, 0.0, 0.00872665, 0.0, 0.0, 0.0, 0.00872665)",-0.414586931467,-0.108647987247,-1.40490841866,"(0.000872665, 0.0, 0.0, 0.0, 0.000872665, 0.0, 0.0, 0.0, 0.000872665)",2.2725981313,-3.7915199858,-0.47817477107,"(0.003, 0.0, 0.0, 0.0, 0.003, 0.0, 0.0, 0.0, 0.003)"
2022/01/11/19:04:49.839123,11888,1641924289,838658109,imu_iphone,-0.170316429632,-0.0404968617691,-0.634032067447,0.753230147719,"(0.00872665, 0.0, 0.0, 0.0, 0.00872665, 0.0, 0.0, 0.0, 0.00872665)",-0.307262480259,-0.0515663325787,-1.17514562607,"(0.000872665, 0.0, 0.0, 0.0, 0.000872665, 0.0, 0.0, 0.0, 0.000872665)",2.46124918878,-3.87575614393,-0.380815706849,"(0.003, 0.0, 0.0, 0.0, 0.003, 0.0, 0.0, 0.0, 0.003)"
2022/01/11/19:04:49.868716,11889,1641924289,868332871,imu_iphone,-0.174819901112,-0.0345819478991,-0.646797078651,0.741549479201,"(0.00872665, 0.0, 0.0, 0.0, 0.00872665, 0.0, 0.0, 0.0, 0.00872665)",-0.197432026267,0.0111394468695,-0.935920000076,"(0.000872665, 0.0, 0.0, 0.0, 0.000872665, 0.0, 0.0, 0.0, 0.000872665)",2.5748114723,-3.91195684075,-0.307247208953,"(0.003, 0.0, 0.0, 0.0, 0.003, 0.0, 0.0, 0.0, 0.003)"
2022/01/11/19:04:49.898525,11890,1641924289,898213236,imu_iphone,-0.176973138401,-0.0299680295989,-0.656332442725,0.732809763932,"(0.00872665, 0.0, 0.0, 0.0, 0.00872665, 0.0, 0.0, 0.0, 0.00872665)",-0.0914431810379,0.0761762335896,-0.694166004658,"(0.000872665, 0.0, 0.0, 0.0, 0.000872665, 0.0, 0.0, 0.0, 0.000872665)",2.59266302168,-3.89877604723,-0.291417042017,"(0.003, 0.0, 0.0, 0.0, 0.003, 0.0, 0.0, 0.0, 0.003)"
2022/01/11/19:04:49.928455,11891,1641924289,928037458,imu_iphone,-0.17687950522,-0.0268914305039,-0.66276382981,0.727141387554,"(0.00872665, 0.0, 0.0, 0.0, 0.00872665, 0.0, 0.0, 0.0, 0.00872665)",0.0143895111978,0.143863141537,-0.452283918858,"(0.000872665, 0.0, 0.0, 0.0, 0.000872665, 0.0, 0.0, 0.0, 0.000872665)",2.53826491266,-3.84452294916,-0.297513933778,"(0.003, 0.0, 0.0, 0.0, 0.003, 0.0, 0.0, 0.0, 0.003)"
2022/01/11/19:04:49.959481,11892,1641924289,957847115,imu_iphone,-0.174750910384,-0.0253985926122,-0.666207575757,0.724558139018,"(0.00872665, 0.0, 0.0, 0.0, 0.00872665, 0.0, 0.0, 0.0, 0.00872665)",0.108986847103,0.202700957656,-0.208668321371,"(0.000872665, 0.0, 0.0, 0.0, 0.000872665, 0.0, 0.0, 0.0, 0.000872665)",2.45356770158,-3.7472387293,-0.338478357196,"(0.003, 0.0, 0.0, 0.0, 0.003, 0.0, 0.0, 0.0, 0.003)"
2022/01/11/19:04:49.988326,11893,1641924289,987571938,imu_iphone,-0.170724928786,-0.0254861337498,-0.666722530477,0.725041049205,"(0.00872665, 0.0, 0.0, 0.0, 0.00872665, 0.0, 0.0, 0.0, 0.00872665)",0.203258931637,0.258427619934,0.0266931355,"(0.000872665, 0.0, 0.0, 0.0, 0.000872665, 0.0, 0.0, 0.0, 0.000872665)",2.30060030088,-3.62417910576,-0.385372442007,"(0.003, 0.0, 0.0, 0.0, 0.003, 0.0, 0.0, 0.0, 0.003)"
2022/01/11/19:04:50.018600,11894,1641924290,18169009,imu_iphone,-0.164984298904,-0.0269149722734,-0.664473630039,0.728375288135,"(0.00872665, 0.0, 0.0, 0.0, 0.00872665, 0.0, 0.0, 0.0, 0.00872665)",0.295256435871,0.304287403822,0.25016823411,"(0.000872665, 0.0, 0.0, 0.0, 0.000872665, 0.0, 0.0, 0.0, 0.000872665)",2.14112568006,-3.48680228233,-0.45291421473,"(0.003, 0.0, 0.0, 0.0, 0.003, 0.0, 0.0, 0.0, 0.003)"
2022/01/11/19:04:50.047436,11895,1641924290,47093108,imu_iphone,-0.157628585658,-0.029364948485,-0.659634775687,0.734283931111,"(0.00872665, 0.0, 0.0, 0.0, 0.00872665, 0.0, 0.0, 0.0, 0.00872665)",0.377243995667,0.340919911861,0.459643959999,"(0.000872665, 0.0, 0.0, 0.0, 0.000872665, 0.0, 0.0, 0.0, 0.000872665)",1.94923614219,-3.34954211086,-0.512794380784,"(0.003, 0.0, 0.0, 0.0, 0.003, 0.0, 0.0, 0.0, 0.003)"
2022/01/11/19:04:50.077287,11896,1641924290,77024844,imu_iphone,-0.148762047107,-0.0324781637441,-0.65232057263,0.74249100516,"(0.00872665, 0.0, 0.0, 0.0, 0.00872665, 0.0, 0.0, 0.0, 0.00872665)",0.460073798895,0.369200438261,0.655641496181,"(0.000872665, 0.0, 0.0, 0.0, 0.000872665, 0.0, 0.0, 0.0, 0.000872665)",1.75788060129,-3.19137375802,-0.596644622684,"(0.003, 0.0, 0.0, 0.0, 0.003, 0.0, 0.0, 0.0, 0.003)"
2022/01/11/19:04:50.107276,11897,1641924290,106923471,imu_iphone,-0.138441321749,-0.0359046811394,-0.642539615824,0.752786620764,"(0.00872665, 0.0, 0.0, 0.0, 0.00872665, 0.0, 0.0, 0.0, 0.00872665)",0.536716997623,0.392868667841,0.852065503597,"(0.000872665, 0.0, 0.0, 0.0, 0.000872665, 0.0, 0.0, 0.0, 0.000872665)",1.57682785437,-3.02222638071,-0.677954249382,"(0.003, 0.0, 0.0, 0.0, 0.003, 0.0, 0.0, 0.0, 0.003)"
2022/01/11/19:04:50.137542,11898,1641924290,137307278,imu_iphone,-0.126755603908,-0.0392257121029,-0.63038240488,0.764861022674,"(0.00872665, 0.0, 0.0, 0.0, 0.00872665, 0.0, 0.0, 0.0, 0.00872665)",0.610843658447,0.402723222971,1.03410816193,"(0.000872665, 0.0, 0.0, 0.0, 0.000872665, 0.0, 0.0, 0.0, 0.000872665)",1.36193390831,-2.82008988976,-0.791195520759,"(0.003, 0.0, 0.0, 0.0, 0.003, 0.0, 0.0, 0.0, 0.003)"
2022/01/11/19:04:50.171530,11899,1641924290,171214517,imu_iphone,-0.113826805858,-0.0419887803443,-0.615918936971,0.778411371753,"(0.00872665, 0.0, 0.0, 0.0, 0.00872665, 0.0, 0.0, 0.0, 0.00872665)",0.685199439526,0.408494502306,1.21084094048,"(0.000872665, 0.0, 0.0, 0.0, 0.000872665, 0.0, 0.0, 0.0, 0.000872665)",1.13266019717,-2.60836162627,-0.879619454741,"(0.003, 0.0, 0.0, 0.0, 0.003, 0.0, 0.0, 0.0, 0.003)"
2022/01/11/19:04:50.196760,11900,1641924290,195474987,imu_iphone,-0.09989072055,-0.0437679236117,-0.599293941409,0.793065561351,"(0.00872665, 0.0, 0.0, 0.0, 0.00872665, 0.0, 0.0, 0.0, 0.00872665)",0.753807604313,0.405232936144,1.36714315414,"(0.000872665, 0.0, 0.0, 0.0, 0.000872665, 0.0, 0.0, 0.0, 0.000872665)",0.89985498704,-2.37347970441,-0.971021960378,"(0.003, 0.0, 0.0, 0.0, 0.003, 0.0, 0.0, 0.0, 0.003)"
2022/01/11/19:04:50.226236,11901,1641924290,225898431,imu_iphone,-0.0852090138686,-0.0441266449168,-0.580690457755,0.808449661659,"(0.00872665, 0.0, 0.0, 0.0, 0.00872665, 0.0, 0.0, 0.0, 0.00872665)",0.81656819582,0.39635103941,1.50612521172,"(0.000872665, 0.0, 0.0, 0.0, 0.000872665, 0.0, 0.0, 0.0, 0.000872665)",0.666055238619,-2.09135169536,-1.03927007675,"(0.003, 0.0, 0.0, 0.0, 0.003, 0.0, 0.0, 0.0, 0.003)"
2022/01/11/19:04:50.256554,11902,1641924290,255976635,imu_iphone,-0.0701856326294,-0.0427261446138,-0.560332321064,0.824182105793,"(0.00872665, 0.0, 0.0, 0.0, 0.00872665, 0.0, 0.0, 0.0, 0.00872665)",0.875702738762,0.367245316505,1.62426888943,"(0.000872665, 0.0, 0.0, 0.0, 0.000872665, 0.0, 0.0, 0.0, 0.000872665)",0.432897002846,-1.77774710119,-1.10888468742,"(0.003, 0.0, 0.0, 0.0, 0.003, 0.0, 0.0, 0.0, 0.003)"
2022/01/11/19:04:50.285815,11903,1641924290,285441504,imu_iphone,-0.0553006649069,-0.0393316444281,-0.538482928409,0.839899395177,"(0.00872665, 0.0, 0.0, 0.0, 0.00872665, 0.0, 0.0, 0.0, 0.00872665)",0.917784392834,0.334883630276,1.73259031773,"(0.000872665, 0.0, 0.0, 0.0, 0.000872665, 0.0, 0.0, 0.0, 0.000872665)",0.18993547149,-1.41276799321,-1.13907210767,"(0.003, 0.0, 0.0, 0.0, 0.003, 0.0, 0.0, 0.0, 0.003)"
2022/01/11/19:04:50.317686,11904,1641924290,315746484,imu_iphone,-0.0410732545837,-0.0338597088954,-0.515257497192,0.855380745317,"(0.00872665, 0.0, 0.0, 0.0, 0.00872665, 0.0, 0.0, 0.0, 0.00872665)",0.948943376541,0.286586344242,1.82523965836,"(0.000872665, 0.0, 0.0, 0.0, 0.000872665, 0.0, 0.0, 0.0, 0.000872665)",-0.0411281454563,-1.03976014651,-1.18798815966,"(0.003, 0.0, 0.0, 0.0, 0.003, 0.0, 0.0, 0.0, 0.003)"
2022/01/11/19:04:50.345719,11905,1641924290,345285144,imu_iphone,-0.0280304259628,-0.0263928926649,-0.490670000456,0.87049449228,"(0.00872665, 0.0, 0.0, 0.0, 0.00872665, 0.0, 0.0, 0.0, 0.00872665)",0.96290910244,0.228201076388,1.91945028305,"(0.000872665, 0.0, 0.0, 0.0, 0.000872665, 0.0, 0.0, 0.0, 0.000872665)",-0.207799501028,-0.650111124068,-1.17509914219,"(0.003, 0.0, 0.0, 0.0, 0.003, 0.0, 0.0, 0.0, 0.003)"
2022/01/11/19:04:50.375833,11906,1641924290,375416540,imu_iphone,-0.0167014832626,-0.0171054063208,-0.464733584655,0.885127765255,"(0.00872665, 0.0, 0.0, 0.0, 0.00872665, 0.0, 0.0, 0.0, 0.00872665)",0.96495860815,0.159734264016,2.0024805069,"(0.000872665, 0.0, 0.0, 0.0, 0.000872665, 0.0, 0.0, 0.0, 0.000872665)",-0.343434311002,-0.260883539692,-1.18058149159,"(0.003, 0.0, 0.0, 0.0, 0.003, 0.0, 0.0, 0.0, 0.003)"
2022/01/11/19:04:50.405257,11907,1641924290,404787049,imu_iphone,-0.00747792268987,-0.00624908973903,-0.43746608366,0.899182103468,"(0.00872665, 0.0, 0.0, 0.0, 0.00872665, 0.0, 0.0, 0.0, 0.00872665)",0.958348572254,0.0910810008645,2.07852768898,"(0.000872665, 0.0, 0.0, 0.0, 0.000872665, 0.0, 0.0, 0.0, 0.000872665)",-0.428857051916,0.0866271394305,-1.15566416681,"(0.003, 0.0, 0.0, 0.0, 0.003, 0.0, 0.0, 0.0, 0.003)"
2022/01/11/19:04:50.435121,11908,1641924290,434707935,imu_iphone,-0.000753389896155,0.0058241190506,-0.408797066781,0.91260641584,"(0.00872665, 0.0, 0.0, 0.0, 0.00872665, 0.0, 0.0, 0.0, 0.00872665)",0.934438824654,0.0167866535485,2.15196204185,"(0.000872665, 0.0, 0.0, 0.0, 0.000872665, 0.0, 0.0, 0.0, 0.000872665)",-0.422244508825,0.457492950037,-1.08307566226,"(0.003, 0.0, 0.0, 0.0, 0.003, 0.0, 0.0, 0.0, 0.003)"
2022/01/11/19:04:50.464702,11909,1641924290,464346101,imu_iphone,0.00325298879197,0.018668030802,-0.378715428768,0.925319159373,"(0.00872665, 0.0, 0.0, 0.0, 0.00872665, 0.0, 0.0, 0.0, 0.00872665)",0.906910181046,-0.0502190366387,2.2092256546,"(0.000872665, 0.0, 0.0, 0.0, 0.000872665, 0.0, 0.0, 0.0, 0.000872665)",-0.379891115874,0.754071402401,-1.08779787362,"(0.003, 0.0, 0.0, 0.0, 0.003, 0.0, 0.0, 0.0, 0.003)"
2022/01/11/19:04:50.494591,11910,1641924290,494173140,imu_iphone,0.00440385488402,0.0318545683968,-0.347417609276,0.937158949858,"(0.00872665, 0.0, 0.0, 0.0, 0.00872665, 0.0, 0.0, 0.0, 0.00872665)",0.872803151608,-0.115326568484,2.2417640686,"(0.000872665, 0.0, 0.0, 0.0, 0.000872665, 0.0, 0.0, 0.0, 0.000872665)",-0.293748984709,1.03545703433,-1.01482111394,"(0.003, 0.0, 0.0, 0.0, 0.003, 0.0, 0.0, 0.0, 0.003)"
2022/01/11/19:04:50.524777,11911,1641924290,524474825,imu_iphone,0.00265426172888,0.0448874111916,-0.315064010025,0.948004612224,"(0.00872665, 0.0, 0.0, 0.0, 0.00872665, 0.0, 0.0, 0.0, 0.00872665)",0.828655600548,-0.175932452083,2.25722837448,"(0.000872665, 0.0, 0.0, 0.0, 0.000872665, 0.0, 0.0, 0.0, 0.000872665)",-0.187580816019,1.29348713279,-0.978816883564,"(0.003, 0.0, 0.0, 0.0, 0.003, 0.0, 0.0, 0.0, 0.003)"
2022/01/11/19:04:50.554631,11912,1641924290,553882916,imu_iphone,-0.00187545137037,0.0572902644134,-0.281963359293,0.95771131992,"(0.00872665, 0.0, 0.0, 0.0, 0.00872665, 0.0, 0.0, 0.0, 0.00872665)",0.78175419569,-0.231856331229,2.24238443375,"(0.000872665, 0.0, 0.0, 0.0, 0.000872665, 0.0, 0.0, 0.0, 0.000872665)",-0.0410557496175,1.50815654576,-0.907960909009,"(0.003, 0.0, 0.0, 0.0, 0.003, 0.0, 0.0, 0.0, 0.003)"
2022/01/11/19:04:50.587264,11913,1641924290,586869772,imu_iphone,-0.00890430654689,0.0686319492407,-0.248562031921,0.966140406543,"(0.00872665, 0.0, 0.0, 0.0, 0.00872665, 0.0, 0.0, 0.0, 0.00872665)",0.730420053005,-0.278304189444,2.19942069054,"(0.000872665, 0.0, 0.0, 0.0, 0.000872665, 0.0, 0.0, 0.0, 0.000872665)",0.145584377311,1.71019918889,-0.837326543927,"(0.003, 0.0, 0.0, 0.0, 0.003, 0.0, 0.0, 0.0, 0.003)"
2022/01/11/19:04:50.613571,11914,1641924290,613216340,imu_iphone,-0.0180557606916,0.0785297498287,-0.215330569287,0.973211083901,"(0.00872665, 0.0, 0.0, 0.0, 0.00872665, 0.0, 0.0, 0.0, 0.00872665)",0.679837942123,-0.31952252984,2.13170313835,"(0.000872665, 0.0, 0.0, 0.0, 0.000872665, 0.0, 0.0, 0.0, 0.000872665)",0.341831004471,1.89217170283,-0.786320697069,"(0.003, 0.0, 0.0, 0.0, 0.003, 0.0, 0.0, 0.0, 0.003)"
2022/01/11/19:04:50.643493,11915,1641924290,643016366,imu_iphone,-0.0288601198608,0.0867458124434,-0.182775577168,0.978894961626,"(0.00872665, 0.0, 0.0, 0.0, 0.00872665, 0.0, 0.0, 0.0, 0.00872665)",0.623405277729,-0.346324384212,2.03525733948,"(0.000872665, 0.0, 0.0, 0.0, 0.000872665, 0.0, 0.0, 0.0, 0.000872665)",0.56732982628,2.04887766704,-0.70555252254,"(0.003, 0.0, 0.0, 0.0, 0.003, 0.0, 0.0, 0.0, 0.003)"
2022/01/11/19:04:50.675006,11916,1641924290,674675458,imu_iphone,-0.0407685255736,0.0931566757834,-0.151389440163,0.983229880794,"(0.00872665, 0.0, 0.0, 0.0, 0.00872665, 0.0, 0.0, 0.0, 0.00872665)",0.564842879772,-0.364294081926,1.92372488976,"(0.000872665, 0.0, 0.0, 0.0, 0.000872665, 0.0, 0.0, 0.0, 0.000872665)",0.817225059047,2.19226601288,-0.6419120121,"(0.003, 0.0, 0.0, 0.0, 0.003, 0.0, 0.0, 0.0, 0.003)"
2022/01/11/19:04:50.703381,11917,1641924290,703015093,imu_iphone,-0.053253634094,0.0977209755283,-0.121611437229,0.986319076026,"(0.00872665, 0.0, 0.0, 0.0, 0.00872665, 0.0, 0.0, 0.0, 0.00872665)",0.503903627396,-0.370007514954,1.79028916359,"(0.000872665, 0.0, 0.0, 0.0, 0.000872665, 0.0, 0.0, 0.0, 0.000872665)",1.07599570736,2.30721160144,-0.580398718715,"(0.003, 0.0, 0.0, 0.0, 0.003, 0.0, 0.0, 0.0, 0.003)"
2022/01/11/19:04:50.734630,11918,1641924290,734190808,imu_iphone,-0.0657703030436,0.100512315074,-0.0938806913925,0.988310658417,"(0.00872665, 0.0, 0.0, 0.0, 0.00872665, 0.0, 0.0, 0.0, 0.00872665)",0.438525676727,-0.363574653864,1.64362585545,"(0.000872665, 0.0, 0.0, 0.0, 0.000872665, 0.0, 0.0, 0.0, 0.000872665)",1.35508550316,2.41658055425,-0.499237026572,"(0.003, 0.0, 0.0, 0.0, 0.003, 0.0, 0.0, 0.0, 0.003)"
2022/01/11/19:04:50.762641,11919,1641924290,762250703,imu_iphone,-0.0778425211887,0.101686614411,-0.0684640962368,0.989400344588,"(0.00872665, 0.0, 0.0, 0.0, 0.00872665, 0.0, 0.0, 0.0, 0.00872665)",0.369457095861,-0.344139575958,1.4964132309,"(0.000872665, 0.0, 0.0, 0.0, 0.000872665, 0.0, 0.0, 0.0, 0.000872665)",1.61923259318,2.50421102107,-0.430733971596,"(0.003, 0.0, 0.0, 0.0, 0.003, 0.0, 0.0, 0.0, 0.003)"
2022/01/11/19:04:50.792502,11920,1641924290,792079270,imu_iphone,-0.0890319489121,0.101460154142,-0.0455848953193,0.98979854845,"(0.00872665, 0.0, 0.0, 0.0, 0.00872665, 0.0, 0.0, 0.0, 0.00872665)",0.29995316267,-0.310877799988,1.34177970886,"(0.000872665, 0.0, 0.0, 0.0, 0.000872665, 0.0, 0.0, 0.0, 0.000872665)",1.86837865144,2.58242425472,-0.359887937307,"(0.003, 0.0, 0.0, 0.0, 0.003, 0.0, 0.0, 0.0, 0.003)"
2022/01/11/19:04:50.822530,11921,1641924290,822028767,imu_iphone,-0.0989755948667,0.100038167239,-0.0254133829829,0.989722363434,"(0.00872665, 0.0, 0.0, 0.0, 0.00872665, 0.0, 0.0, 0.0, 0.00872665)",0.228052914143,-0.263300150633,1.17780017853,"(0.000872665, 0.0, 0.0, 0.0, 0.000872665, 0.0, 0.0, 0.0, 0.000872665)",2.13528270364,2.63313744843,-0.250986469388,"(0.003, 0.0, 0.0, 0.0, 0.003, 0.0, 0.0, 0.0, 0.003)"
2022/01/11/19:04:50.852189,11922,1641924290,851765544,imu_iphone,-0.107333304116,0.0977215841636,-0.00822686735451,0.98937473814,"(0.00872665, 0.0, 0.0, 0.0, 0.00872665, 0.0, 0.0, 0.0, 0.00872665)",0.148684486747,-0.203287050128,1.00055873394,"(0.000872665, 0.0, 0.0, 0.0, 0.000872665, 0.0, 0.0, 0.0, 0.000872665)",2.32455838993,2.67684304655,-0.213706961274,"(0.003, 0.0, 0.0, 0.0, 0.003, 0.0, 0.0, 0.0, 0.003)"
2022/01/11/19:04:50.881676,11923,1641924290,881372053,imu_iphone,-0.113836104639,0.0947603293799,0.00581746941207,0.988952970725,"(0.00872665, 0.0, 0.0, 0.0, 0.00872665, 0.0, 0.0, 0.0, 0.00872665)",0.0679088234901,-0.136473298073,0.824891507626,"(0.000872665, 0.0, 0.0, 0.0, 0.000872665, 0.0, 0.0, 0.0, 0.000872665)",2.48642525285,2.68946016848,-0.15065877378,"(0.003, 0.0, 0.0, 0.0, 0.003, 0.0, 0.0, 0.0, 0.003)"
2022/01/11/19:04:50.911877,11924,1641924290,911452858,imu_iphone,-0.118380765313,0.0913667889515,0.0166939292378,0.988614898233,"(0.00872665, 0.0, 0.0, 0.0, 0.00872665, 0.0, 0.0, 0.0, 0.00872665)",-0.0105583593249,-0.0648674368858,0.643796920776,"(0.000872665, 0.0, 0.0, 0.0, 0.000872665, 0.0, 0.0, 0.0, 0.000872665)",2.58809166849,2.68381643593,-0.123495533466,"(0.003, 0.0, 0.0, 0.0, 0.003, 0.0, 0.0, 0.0, 0.003)"
2022/01/11/19:04:50.952931,11925,1641924290,952622507,imu_iphone,-0.120891934503,0.0876976138451,0.0243882521934,0.988483425179,"(0.00872665, 0.0, 0.0, 0.0, 0.00872665, 0.0, 0.0, 0.0, 0.00872665)",-0.094102717936,0.0136267226189,0.459450423717,"(0.000872665, 0.0, 0.0, 0.0, 0.000872665, 0.0, 0.0, 0.0, 0.000872665)",2.64480849087,2.64331862032,-0.111915707588,"(0.003, 0.0, 0.0, 0.0, 0.003, 0.0, 0.0, 0.0, 0.003)"
2022/01/11/19:04:50.971028,11926,1641924290,970721178,imu_iphone,-0.12134568332,0.0839180036688,0.0288403808714,0.98863604336,"(0.00872665, 0.0, 0.0, 0.0, 0.00872665, 0.0, 0.0, 0.0, 0.00872665)",-0.173191279173,0.0928958803415,0.270251989365,"(0.000872665, 0.0, 0.0, 0.0, 0.000872665, 0.0, 0.0, 0.0, 0.000872665)",2.63213406622,2.5744983539,-0.119607719779,"(0.003, 0.0, 0.0, 0.0, 0.003, 0.0, 0.0, 0.0, 0.003)"
2022/01/11/19:04:51.000931,11927,1641924291,637578,imu_iphone,-0.11981635079,0.0800783769446,0.0300572398095,0.989104674928,"(0.00872665, 0.0, 0.0, 0.0, 0.00872665, 0.0, 0.0, 0.0, 0.00872665)",-0.251439660788,0.169869497418,0.0818423256278,"(0.000872665, 0.0, 0.0, 0.0, 0.000872665, 0.0, 0.0, 0.0, 0.000872665)",2.55982359678,2.46488089442,-0.161988338828,"(0.003, 0.0, 0.0, 0.0, 0.003, 0.0, 0.0, 0.0, 0.003)"
2022/01/11/19:04:51.031438,11928,1641924291,30683979,imu_iphone,-0.11646401284,0.0761937610401,0.0281543783569,0.989867655533,"(0.00872665, 0.0, 0.0, 0.0, 0.00872665, 0.0, 0.0, 0.0, 0.00872665)",-0.326246708632,0.239377215505,-0.104429170489,"(0.000872665, 0.0, 0.0, 0.0, 0.000872665, 0.0, 0.0, 0.0, 0.000872665)",2.44461488351,2.35078081325,-0.237223293185,"(0.003, 0.0, 0.0, 0.0, 0.003, 0.0, 0.0, 0.0, 0.003)"
2022/01/11/19:04:51.060562,11929,1641924291,60340691,imu_iphone,-0.111503015195,0.072183489997,0.0232699612121,0.99086584878,"(0.00872665, 0.0, 0.0, 0.0, 0.00872665, 0.0, 0.0, 0.0, 0.00872665)",-0.398037403822,0.304132044315,-0.280472844839,"(0.000872665, 0.0, 0.0, 0.0, 0.000872665, 0.0, 0.0, 0.0, 0.000872665)",2.29177378267,2.19307526752,-0.32999638617,"(0.003, 0.0, 0.0, 0.0, 0.003, 0.0, 0.0, 0.0, 0.003)"
2022/01/11/19:04:51.090323,11930,1641924291,89985168,imu_iphone,-0.105172137815,0.0679591314081,0.0155863787272,0.992006775523,"(0.00872665, 0.0, 0.0, 0.0, 0.00872665, 0.0, 0.0, 0.0, 0.00872665)",-0.466033369303,0.357051700354,-0.455208212137,"(0.000872665, 0.0, 0.0, 0.0, 0.000872665, 0.0, 0.0, 0.0, 0.000872665)",2.10583524853,2.01753454462,-0.429929979444,"(0.003, 0.0, 0.0, 0.0, 0.003, 0.0, 0.0, 0.0, 0.003)"
2022/01/11/19:04:51.120082,11931,1641924291,119787712,imu_iphone,-0.0977356591206,0.0634049750146,0.00515378530603,0.993177219119,"(0.00872665, 0.0, 0.0, 0.0, 0.00872665, 0.0, 0.0, 0.0, 0.00872665)",-0.52515488863,0.398553431034,-0.629387199879,"(0.000872665, 0.0, 0.0, 0.0, 0.000872665, 0.0, 0.0, 0.0, 0.000872665)",1.9049645336,1.81152383476,-0.527497789264,"(0.003, 0.0, 0.0, 0.0, 0.003, 0.0, 0.0, 0.0, 0.003)"
2022/01/11/19:04:51.150057,11932,1641924291,149684415,imu_iphone,-0.0894563256731,0.0584708313888,-0.00795660398051,0.994241127759,"(0.00872665, 0.0, 0.0, 0.0, 0.00872665, 0.0, 0.0, 0.0, 0.00872665)",-0.579710304737,0.429639309645,-0.804271280766,"(0.000872665, 0.0, 0.0, 0.0, 0.000872665, 0.0, 0.0, 0.0, 0.000872665)",1.69936678335,1.58886507869,-0.613425546885,"(0.003, 0.0, 0.0, 0.0, 0.003, 0.0, 0.0, 0.0, 0.003)"
2022/01/11/19:04:51.181393,11933,1641924291,181048672,imu_iphone,-0.0806210774237,0.0530790857421,-0.0236716067831,0.99504899757,"(0.00872665, 0.0, 0.0, 0.0, 0.00872665, 0.0, 0.0, 0.0, 0.00872665)",-0.624062597752,0.456247478724,-0.986004829407,"(0.000872665, 0.0, 0.0, 0.0, 0.000872665, 0.0, 0.0, 0.0, 0.000872665)",1.45670075566,1.3410007301,-0.710903894305,"(0.003, 0.0, 0.0, 0.0, 0.003, 0.0, 0.0, 0.0, 0.003)"
2022/01/11/19:04:51.208392,11934,1641924291,208076371,imu_iphone,-0.0715415281043,0.0471694900309,-0.0419626486573,0.995437584726,"(0.00872665, 0.0, 0.0, 0.0, 0.00872665, 0.0, 0.0, 0.0, 0.00872665)",-0.660286664963,0.46433454752,-1.16258049011,"(0.000872665, 0.0, 0.0, 0.0, 0.000872665, 0.0, 0.0, 0.0, 0.000872665)",1.23788742095,1.09915009663,-0.754952139258,"(0.003, 0.0, 0.0, 0.0, 0.003, 0.0, 0.0, 0.0, 0.003)"
2022/01/11/19:04:51.240163,11935,1641924291,239261622,imu_iphone,-0.0625561733134,0.0406825097931,-0.0626901556927,0.995239470156,"(0.00872665, 0.0, 0.0, 0.0, 0.00872665, 0.0, 0.0, 0.0, 0.00872665)",-0.691243231297,0.468869835138,-1.34146666527,"(0.000872665, 0.0, 0.0, 0.0, 0.000872665, 0.0, 0.0, 0.0, 0.000872665)",1.02486049086,0.884051790386,-0.839581815004,"(0.003, 0.0, 0.0, 0.0, 0.003, 0.0, 0.0, 0.0, 0.003)"
2022/01/11/19:04:51.269433,11936,1641924291,268901831,imu_iphone,-0.0539782199191,0.0335818465602,-0.0858666534332,0.994276384706,"(0.00872665, 0.0, 0.0, 0.0, 0.00872665, 0.0, 0.0, 0.0, 0.00872665)",-0.715531826019,0.462886452675,-1.51921200752,"(0.000872665, 0.0, 0.0, 0.0, 0.000872665, 0.0, 0.0, 0.0, 0.000872665)",0.811685553119,0.625090742111,-0.835219792128,"(0.003, 0.0, 0.0, 0.0, 0.003, 0.0, 0.0, 0.0, 0.003)"
2022/01/11/19:04:51.424378,11937,1641924291,423677506,imu_iphone,-0.0461693722754,0.0258667387021,-0.111278577997,0.992379150815,"(0.00872665, 0.0, 0.0, 0.0, 0.00872665, 0.0, 0.0, 0.0, 0.00872665)",-0.736143708229,0.44214040041,-1.67908632755,"(0.000872665, 0.0, 0.0, 0.0, 0.000872665, 0.0, 0.0, 0.0, 0.000872665)",0.614872074947,0.420500284396,-0.897696706653,"(0.003, 0.0, 0.0, 0.0, 0.003, 0.0, 0.0, 0.0, 0.003)"
2022/01/11/19:04:51.449043,11938,1641924291,447561128,imu_iphone,-0.028937871377,-0.0197484625705,-0.260215923785,0.964914644326,"(0.00872665, 0.0, 0.0, 0.0, 0.00872665, 0.0, 0.0, 0.0, 0.00872665)",-0.786033153534,0.261415809393,-2.14399695396,"(0.000872665, 0.0, 0.0, 0.0, 0.000872665, 0.0, 0.0, 0.0, 0.000872665)",0.073542660512,-0.609178896882,-0.939278011322,"(0.003, 0.0, 0.0, 0.0, 0.003, 0.0, 0.0, 0.0, 0.003)"
2022/01/11/19:04:51.600779,11939,1641924291,599816671,imu_iphone,-0.0311229320332,-0.029101152809,-0.291580732693,0.955596757178,"(0.00872665, 0.0, 0.0, 0.0, 0.00872665, 0.0, 0.0, 0.0, 0.00872665)",-0.792330920696,0.217262670398,-2.15007090569,"(0.000872665, 0.0, 0.0, 0.0, 0.000872665, 0.0, 0.0, 0.0, 0.000872665)",0.0428134226426,-0.813174400404,-0.939141186476,"(0.003, 0.0, 0.0, 0.0, 0.003, 0.0, 0.0, 0.0, 0.003)"
2022/01/11/19:04:51.625840,11940,1641924291,625379642,imu_iphone,-0.0672654139036,-0.0646886427649,-0.434198684857,0.895970002655,"(0.00872665, 0.0, 0.0, 0.0, 0.00872665, 0.0, 0.0, 0.0, 0.00872665)",-0.746515333652,-0.00703485915437,-1.75750982761,"(0.000872665, 0.0, 0.0, 0.0, 0.000872665, 0.0, 0.0, 0.0, 0.000872665)",0.298165459782,-1.99355072781,-0.795975619555,"(0.003, 0.0, 0.0, 0.0, 0.003, 0.0, 0.0, 0.0, 0.003)"
2022/01/11/19:04:51.656785,11941,1641924291,656509264,imu_iphone,-0.0776626158906,-0.0685383067879,-0.457994890243,0.88289959741,"(0.00872665, 0.0, 0.0, 0.0, 0.00872665, 0.0, 0.0, 0.0, 0.00872665)",-0.715480923653,-0.0381264090538,-1.63607466221,"(0.000872665, 0.0, 0.0, 0.0, 0.000872665, 0.0, 0.0, 0.0, 0.000872665)",0.421374552771,-2.26967013806,-0.770637879968,"(0.003, 0.0, 0.0, 0.0, 0.003, 0.0, 0.0, 0.0, 0.003)"
2022/01/11/19:04:51.686413,11942,1641924291,685910100,imu_iphone,-0.088262631134,-0.0711648650421,-0.480005634073,0.869907961331,"(0.00872665, 0.0, 0.0, 0.0, 0.00872665, 0.0, 0.0, 0.0, 0.00872665)",-0.668950140476,-0.0601794719696,-1.51845359802,"(0.000872665, 0.0, 0.0, 0.0, 0.000872665, 0.0, 0.0, 0.0, 0.000872665)",0.584593584314,-2.53921917826,-0.708909993768,"(0.003, 0.0, 0.0, 0.0, 0.003, 0.0, 0.0, 0.0, 0.003)"
2022/01/11/19:04:51.716056,11943,1641924291,715776206,imu_iphone,-0.098708939295,-0.0725678091979,-0.500301103124,0.857140166241,"(0.00872665, 0.0, 0.0, 0.0, 0.00872665, 0.0, 0.0, 0.0, 0.00872665)",-0.613278508186,-0.0715925991535,-1.40718257427,"(0.000872665, 0.0, 0.0, 0.0, 0.000872665, 0.0, 0.0, 0.0, 0.000872665)",0.780475527942,-2.80646412313,-0.655536609292,"(0.003, 0.0, 0.0, 0.0, 0.003, 0.0, 0.0, 0.0, 0.003)"
2022/01/11/19:04:51.746470,11944,1641924291,745657395,imu_iphone,-0.108613482015,-0.0728193610398,-0.518922762771,0.844760095211,"(0.00872665, 0.0, 0.0, 0.0, 0.00872665, 0.0, 0.0, 0.0, 0.00872665)",-0.542268872261,-0.0706611424685,-1.29322826862,"(0.000872665, 0.0, 0.0, 0.0, 0.000872665, 0.0, 0.0, 0.0, 0.000872665)",0.988134275526,-3.059841519,-0.570653749108,"(0.003, 0.0, 0.0, 0.0, 0.003, 0.0, 0.0, 0.0, 0.003)"
2022/01/11/19:04:51.775465,11945,1641924291,775195848,imu_iphone,-0.117565939367,-0.0720868101022,-0.535792524303,0.833011472077,"(0.00872665, 0.0, 0.0, 0.0, 0.00872665, 0.0, 0.0, 0.0, 0.00872665)",-0.46508783102,-0.0570707842708,-1.1758556366,"(0.000872665, 0.0, 0.0, 0.0, 0.000872665, 0.0, 0.0, 0.0, 0.000872665)",1.18746636875,-3.27610429823,-0.476423529983,"(0.003, 0.0, 0.0, 0.0, 0.003, 0.0, 0.0, 0.0, 0.003)"
2022/01/11/19:04:51.805281,11946,1641924291,805027505,imu_iphone,-0.125208445682,-0.0705968991848,-0.550834867267,0.822143461908,"(0.00872665, 0.0, 0.0, 0.0, 0.00872665, 0.0, 0.0, 0.0, 0.00872665)",-0.377822369337,-0.0266599319875,-1.04836833477,"(0.000872665, 0.0, 0.0, 0.0, 0.000872665, 0.0, 0.0, 0.0, 0.000872665)",1.36552512199,-3.45787727594,-0.389203537703,"(0.003, 0.0, 0.0, 0.0, 0.003, 0.0, 0.0, 0.0, 0.003)"
2022/01/11/19:04:51.835086,11947,1641924291,834790205,imu_iphone,-0.131261910188,-0.0686113120247,-0.563936146345,0.812427733181,"(0.00872665, 0.0, 0.0, 0.0, 0.00872665, 0.0, 0.0, 0.0, 0.00872665)",-0.281597882509,0.0134437568486,-0.919592857361,"(0.000872665, 0.0, 0.0, 0.0, 0.000872665, 0.0, 0.0, 0.0, 0.000872665)",1.49286549211,-3.58677651376,-0.326224347353,"(0.003, 0.0, 0.0, 0.0, 0.003, 0.0, 0.0, 0.0, 0.003)"
2022/01/11/19:04:51.864836,11948,1641924291,864503325,imu_iphone,-0.135546305469,-0.0663961384481,-0.575032019643,0.804087637175,"(0.00872665, 0.0, 0.0, 0.0, 0.00872665, 0.0, 0.0, 0.0, 0.00872665)",-0.184914380312,0.0521465390921,-0.780363440514,"(0.000872665, 0.0, 0.0, 0.0, 0.000872665, 0.0, 0.0, 0.0, 0.000872665)",1.54738668501,-3.65927847952,-0.27587397337,"(0.003, 0.0, 0.0, 0.0, 0.003, 0.0, 0.0, 0.0, 0.003)"
2022/01/11/19:04:51.894938,11949,1641924291,894530297,imu_iphone,-0.137990780932,-0.0641316535421,-0.584080038573,0.797305577513,"(0.00872665, 0.0, 0.0, 0.0, 0.00872665, 0.0, 0.0, 0.0, 0.00872665)",-0.0868262574077,0.0924470350146,-0.641942679882,"(0.000872665, 0.0, 0.0, 0.0, 0.000872665, 0.0, 0.0, 0.0, 0.000872665)",1.53654711664,-3.66799346209,-0.243526006937,"(0.003, 0.0, 0.0, 0.0, 0.003, 0.0, 0.0, 0.0, 0.003)"
2022/01/11/19:04:51.925910,11950,1641924291,924407400,imu_iphone,-0.138621499977,-0.06196354227,-0.591134572308,0.792151826733,"(0.00872665, 0.0, 0.0, 0.0, 0.00872665, 0.0, 0.0, 0.0, 0.00872665)",0.008335897699,0.133084654808,-0.50147163868,"(0.000872665, 0.0, 0.0, 0.0, 0.000872665, 0.0, 0.0, 0.0, 0.000872665)",1.48160550892,-3.62623469442,-0.258799518943,"(0.003, 0.0, 0.0, 0.0, 0.003, 0.0, 0.0, 0.0, 0.003)"
2022/01/11/19:04:51.956303,11951,1641924291,955996044,imu_iphone,-0.137533156692,-0.060001247271,-0.596204564194,0.788685361073,"(0.00872665, 0.0, 0.0, 0.0, 0.00872665, 0.0, 0.0, 0.0, 0.00872665)",0.100826412439,0.167192623019,-0.357664167881,"(0.000872665, 0.0, 0.0, 0.0, 0.000872665, 0.0, 0.0, 0.0, 0.000872665)",1.41434717998,-3.54556212187,-0.275899116397,"(0.003, 0.0, 0.0, 0.0, 0.003, 0.0, 0.0, 0.0, 0.003)"
2022/01/11/19:04:51.984720,11952,1641924291,983905565,imu_iphone,-0.134780897213,-0.0582853991439,-0.599270665433,0.786963526184,"(0.00872665, 0.0, 0.0, 0.0, 0.00872665, 0.0, 0.0, 0.0, 0.00872665)",0.188919663429,0.20203371346,-0.20552547276,"(0.000872665, 0.0, 0.0, 0.0, 0.000872665, 0.0, 0.0, 0.0, 0.000872665)",1.32748723,-3.44700087011,-0.316938384175,"(0.003, 0.0, 0.0, 0.0, 0.003, 0.0, 0.0, 0.0, 0.003)"
2022/01/11/19:04:52.013786,11953,1641924292,13549531,imu_iphone,-0.130479241835,-0.0568806631006,-0.600271548586,0.787028478248,"(0.00872665, 0.0, 0.0, 0.0, 0.00872665, 0.0, 0.0, 0.0, 0.00872665)",0.270397245884,0.227478459477,-0.0476308166981,"(0.000872665, 0.0, 0.0, 0.0, 0.000872665, 0.0, 0.0, 0.0, 0.000872665)",1.24055945233,-3.30985881239,-0.356191912293,"(0.003, 0.0, 0.0, 0.0, 0.003, 0.0, 0.0, 0.0, 0.003)"
2022/01/11/19:04:52.043635,11954,1641924292,43359832,imu_iphone,-0.124759848533,-0.0557402039406,-0.599211353613,0.788843307356,"(0.00872665, 0.0, 0.0, 0.0, 0.00872665, 0.0, 0.0, 0.0, 0.00872665)",0.346221208572,0.250317364931,0.112702228129,"(0.000872665, 0.0, 0.0, 0.0, 0.000872665, 0.0, 0.0, 0.0, 0.000872665)",1.13565090179,-3.16844507128,-0.397629375458,"(0.003, 0.0, 0.0, 0.0, 0.003, 0.0, 0.0, 0.0, 0.003)"
2022/01/11/19:04:52.073672,11955,1641924292,73215524,imu_iphone,-0.11770611891,-0.054766736919,-0.59611455595,0.792334090068,"(0.00872665, 0.0, 0.0, 0.0, 0.00872665, 0.0, 0.0, 0.0, 0.00872665)",0.422350823879,0.269235551357,0.274692058563,"(0.000872665, 0.0, 0.0, 0.0, 0.000872665, 0.0, 0.0, 0.0, 0.000872665)",1.03060231045,-3.01076759219,-0.451626073122,"(0.003, 0.0, 0.0, 0.0, 0.003, 0.0, 0.0, 0.0, 0.003)"
2022/01/11/19:04:52.103292,11956,1641924292,102898464,imu_iphone,-0.109422058346,-0.0538245579461,-0.590964407568,0.797427613704,"(0.00872665, 0.0, 0.0, 0.0, 0.00872665, 0.0, 0.0, 0.0, 0.00872665)",0.491943925619,0.282517880201,0.438064336777,"(0.000872665, 0.0, 0.0, 0.0, 0.000872665, 0.0, 0.0, 0.0, 0.000872665)",0.917838683501,-2.83338002622,-0.528262605071,"(0.003, 0.0, 0.0, 0.0, 0.003, 0.0, 0.0, 0.0, 0.003)"
2022/01/11/19:04:52.133148,11957,1641924292,132749065,imu_iphone,-0.100079151268,-0.052692607929,-0.583828046388,0.80396048709,"(0.00872665, 0.0, 0.0, 0.0, 0.00872665, 0.0, 0.0, 0.0, 0.00872665)",0.558851122856,0.292248427868,0.588582575321,"(0.000872665, 0.0, 0.0, 0.0, 0.000872665, 0.0, 0.0, 0.0, 0.000872665)",0.786282836348,-2.61026928037,-0.602155623436,"(0.003, 0.0, 0.0, 0.0, 0.003, 0.0, 0.0, 0.0, 0.003)"
2022/01/11/19:04:52.180157,11958,1641924292,179616451,imu_iphone,-0.089791989655,-0.0511878358311,-0.574793027999,0.811745144131,"(0.00872665, 0.0, 0.0, 0.0, 0.00872665, 0.0, 0.0, 0.0, 0.00872665)",0.620434939861,0.29912173748,0.742874026299,"(0.000872665, 0.0, 0.0, 0.0, 0.000872665, 0.0, 0.0, 0.0, 0.000872665)",0.646976651028,-2.39742960736,-0.674679223895,"(0.003, 0.0, 0.0, 0.0, 0.003, 0.0, 0.0, 0.0, 0.003)"
2022/01/11/19:04:52.191615,11959,1641924292,191181787,imu_iphone,-0.0787589701111,-0.0490806179115,-0.563925709287,0.820594852517,"(0.00872665, 0.0, 0.0, 0.0, 0.00872665, 0.0, 0.0, 0.0, 0.00872665)",0.674430847168,0.298836261034,0.883998215199,"(0.000872665, 0.0, 0.0, 0.0, 0.000872665, 0.0, 0.0, 0.0, 0.000872665)",0.504194953814,-2.1268410784,-0.737482997775,"(0.003, 0.0, 0.0, 0.0, 0.003, 0.0, 0.0, 0.0, 0.003)"
2022/01/11/19:04:52.233098,11960,1641924292,232642863,imu_iphone,-0.0672273207735,-0.0461774764749,-0.551332417067,0.830289524142,"(0.00872665, 0.0, 0.0, 0.0, 0.00872665, 0.0, 0.0, 0.0, 0.00872665)",0.72437953949,0.287422209978,1.0198636055,"(0.000872665, 0.0, 0.0, 0.0, 0.000872665, 0.0, 0.0, 0.0, 0.000872665)",0.335933356583,-1.84978172824,-0.768183218837,"(0.003, 0.0, 0.0, 0.0, 0.003, 0.0, 0.0, 0.0, 0.003)"
2022/01/11/19:04:52.251525,11961,1641924292,251192855,imu_iphone,-0.0554961647933,-0.0422937480472,-0.537087857174,0.840635502608,"(0.00872665, 0.0, 0.0, 0.0, 0.00872665, 0.0, 0.0, 0.0, 0.00872665)",0.760146379471,0.275215446949,1.1421507597,"(0.000872665, 0.0, 0.0, 0.0, 0.000872665, 0.0, 0.0, 0.0, 0.000872665)",0.154840154238,-1.53982696608,-0.832289752364,"(0.003, 0.0, 0.0, 0.0, 0.003, 0.0, 0.0, 0.0, 0.003)"
2022/01/11/19:04:52.282374,11962,1641924292,281929764,imu_iphone,-0.0439079396608,-0.0372877732091,-0.52135183438,0.851395313349,"(0.00872665, 0.0, 0.0, 0.0, 0.00872665, 0.0, 0.0, 0.0, 0.00872665)",0.78645324707,0.246323913336,1.25878357887,"(0.000872665, 0.0, 0.0, 0.0, 0.000872665, 0.0, 0.0, 0.0, 0.000872665)",-0.0419400678948,-1.20387592167,-0.851718880534,"(0.003, 0.0, 0.0, 0.0, 0.003, 0.0, 0.0, 0.0, 0.003)"
2022/01/11/19:04:52.311949,11963,1641924292,311496551,imu_iphone,-0.0328536667039,-0.031158440506,-0.504076882957,0.862471033854,"(0.00872665, 0.0, 0.0, 0.0, 0.00872665, 0.0, 0.0, 0.0, 0.00872665)",0.804638147354,0.209902197123,1.37925946712,"(0.000872665, 0.0, 0.0, 0.0, 0.000872665, 0.0, 0.0, 0.0, 0.000872665)",-0.187662147135,-0.871485758498,-0.855878589749,"(0.003, 0.0, 0.0, 0.0, 0.003, 0.0, 0.0, 0.0, 0.003)"
2022/01/11/19:04:52.341751,11964,1641924292,341225485,imu_iphone,-0.02269219685,-0.0238830869113,-0.48525036413,0.873754397112,"(0.00872665, 0.0, 0.0, 0.0, 0.00872665, 0.0, 0.0, 0.0, 0.00872665)",0.810458779335,0.163931384683,1.49007999897,"(0.000872665, 0.0, 0.0, 0.0, 0.000872665, 0.0, 0.0, 0.0, 0.000872665)",-0.32335968677,-0.539851055592,-0.854611498117,"(0.003, 0.0, 0.0, 0.0, 0.003, 0.0, 0.0, 0.0, 0.003)"
2022/01/11/19:04:52.373015,11965,1641924292,372477223,imu_iphone,-0.0137570554746,-0.0155580068524,-0.464852593156,0.885144484524,"(0.00872665, 0.0, 0.0, 0.0, 0.00872665, 0.0, 0.0, 0.0, 0.00872665)",0.803570151329,0.115300267935,1.60205864906,"(0.000872665, 0.0, 0.0, 0.0, 0.000872665, 0.0, 0.0, 0.0, 0.000872665)",-0.408781550601,-0.226211195402,-0.839533867836,"(0.003, 0.0, 0.0, 0.0, 0.003, 0.0, 0.0, 0.0, 0.003)"
2022/01/11/19:04:52.403365,11966,1641924292,402750185,imu_iphone,-0.00636098287376,-0.00633132258045,-0.442860657386,0.896545531689,"(0.00872665, 0.0, 0.0, 0.0, 0.00872665, 0.0, 0.0, 0.0, 0.00872665)",0.788973689079,0.0656085014343,1.69784855843,"(0.000872665, 0.0, 0.0, 0.0, 0.000872665, 0.0, 0.0, 0.0, 0.000872665)",-0.44951859042,0.0734610004909,-0.831753562689,"(0.003, 0.0, 0.0, 0.0, 0.003, 0.0, 0.0, 0.0, 0.003)"
2022/01/11/19:04:52.430950,11967,1641924292,430617920,imu_iphone,-0.000737314148762,0.00367522902993,-0.419404080962,0.90779191775,"(0.00872665, 0.0, 0.0, 0.0, 0.00872665, 0.0, 0.0, 0.0, 0.00872665)",0.772063910961,0.0101203490049,1.7823830843,"(0.000872665, 0.0, 0.0, 0.0, 0.000872665, 0.0, 0.0, 0.0, 0.000872665)",-0.4480538629,0.346344981864,-0.794374067187,"(0.003, 0.0, 0.0, 0.0, 0.003, 0.0, 0.0, 0.0, 0.003)"
2022/01/11/19:04:52.460623,11968,1641924292,460406432,imu_iphone,0.0029374471229,0.0141995644284,-0.394487306343,0.918786976893,"(0.00872665, 0.0, 0.0, 0.0, 0.00872665, 0.0, 0.0, 0.0, 0.00872665)",0.747005164623,-0.0401375368237,1.85939323902,"(0.000872665, 0.0, 0.0, 0.0, 0.000872665, 0.0, 0.0, 0.0, 0.000872665)",-0.40603741575,0.598589881696,-0.755562588573,"(0.003, 0.0, 0.0, 0.0, 0.003, 0.0, 0.0, 0.0, 0.003)"
2022/01/11/19:04:52.494097,11969,1641924292,493737555,imu_iphone,0.00454181100245,0.02497845943,-0.368287237461,0.929365352937,"(0.00872665, 0.0, 0.0, 0.0, 0.00872665, 0.0, 0.0, 0.0, 0.00872665)",0.716371834278,-0.0920784473419,1.90747213364,"(0.000872665, 0.0, 0.0, 0.0, 0.000872665, 0.0, 0.0, 0.0, 0.000872665)",-0.355434953682,0.79723657161,-0.735941671729,"(0.003, 0.0, 0.0, 0.0, 0.003, 0.0, 0.0, 0.0, 0.003)"
2022/01/11/19:04:52.520401,11970,1641924292,520015458,imu_iphone,0.00407097769381,0.0357792656306,-0.341098435071,0.939337601123,"(0.00872665, 0.0, 0.0, 0.0, 0.00872665, 0.0, 0.0, 0.0, 0.00872665)",0.690684080124,-0.135004639626,1.92931687832,"(0.000872665, 0.0, 0.0, 0.0, 0.000872665, 0.0, 0.0, 0.0, 0.000872665)",-0.266085076556,0.993960075751,-0.691107560992,"(0.003, 0.0, 0.0, 0.0, 0.003, 0.0, 0.0, 0.0, 0.003)"
2022/01/11/19:04:52.550124,11971,1641924292,549728500,imu_iphone,0.00157049263166,0.0462831543758,-0.31322993163,0.948547528121,"(0.00872665, 0.0, 0.0, 0.0, 0.00872665, 0.0, 0.0, 0.0, 0.00872665)",0.658453047276,-0.177979364991,1.93321800232,"(0.000872665, 0.0, 0.0, 0.0, 0.000872665, 0.0, 0.0, 0.0, 0.000872665)",-0.175446107648,1.19627783038,-0.662836273313,"(0.003, 0.0, 0.0, 0.0, 0.003, 0.0, 0.0, 0.0, 0.003)"
2022/01/11/19:04:52.580230,11972,1641924292,579536182,imu_iphone,-0.00282093947663,0.0562118993263,-0.285010311893,0.956870621761,"(0.00872665, 0.0, 0.0, 0.0, 0.00872665, 0.0, 0.0, 0.0, 0.00872665)",0.626277208328,-0.214621096849,1.90546500683,"(0.000872665, 0.0, 0.0, 0.0, 0.000872665, 0.0, 0.0, 0.0, 0.000872665)",-0.0382159031555,1.36540890858,-0.643541631103,"(0.003, 0.0, 0.0, 0.0, 0.003, 0.0, 0.0, 0.0, 0.003)"
2022/01/11/19:04:52.609925,11973,1641924292,609306764,imu_iphone,-0.00889711745039,0.0653207564677,-0.256845252787,0.964201512235,"(0.00872665, 0.0, 0.0, 0.0, 0.00872665, 0.0, 0.0, 0.0, 0.00872665)",0.589133501053,-0.249795168638,1.85739719868,"(0.000872665, 0.0, 0.0, 0.0, 0.000872665, 0.0, 0.0, 0.0, 0.000872665)",0.118471276872,1.53396527857,-0.582234159708,"(0.003, 0.0, 0.0, 0.0, 0.003, 0.0, 0.0, 0.0, 0.003)"
2022/01/11/19:04:52.639838,11974,1641924292,639382920,imu_iphone,-0.016347894637,0.0733699924952,-0.229105635144,0.970494821464,"(0.00872665, 0.0, 0.0, 0.0, 0.00872665, 0.0, 0.0, 0.0, 0.00872665)",0.544655025005,-0.274051070213,1.78584337234,"(0.000872665, 0.0, 0.0, 0.0, 0.000872665, 0.0, 0.0, 0.0, 0.000872665)",0.290662312657,1.69463960186,-0.545407226086,"(0.003, 0.0, 0.0, 0.0, 0.003, 0.0, 0.0, 0.0, 0.003)"
2022/01/11/19:04:52.669886,11975,1641924292,668987499,imu_iphone,-0.024881492773,0.0802338955681,-0.202128264581,0.975749761966,"(0.00872665, 0.0, 0.0, 0.0, 0.00872665, 0.0, 0.0, 0.0, 0.00872665)",0.502007603645,-0.289359211922,1.70135819912,"(0.000872665, 0.0, 0.0, 0.0, 0.000872665, 0.0, 0.0, 0.0, 0.000872665)",0.471346246451,1.84703865319,-0.490817036033,"(0.003, 0.0, 0.0, 0.0, 0.003, 0.0, 0.0, 0.0, 0.003)"
2022/01/11/19:04:52.699059,11976,1641924292,698743861,imu_iphone,-0.0341181719402,0.0857676772303,-0.176237497881,0.980010306184,"(0.00872665, 0.0, 0.0, 0.0, 0.00872665, 0.0, 0.0, 0.0, 0.00872665)",0.451415091753,-0.298464149237,1.60790157318,"(0.000872665, 0.0, 0.0, 0.0, 0.000872665, 0.0, 0.0, 0.0, 0.000872665)",0.679251234904,2.00012562945,-0.430617027283,"(0.003, 0.0, 0.0, 0.0, 0.003, 0.0, 0.0, 0.0, 0.003)"
2022/01/11/19:04:52.728842,11977,1641924292,728500951,imu_iphone,-0.043687879244,0.0899414136985,-0.151699631005,0.983356056198,"(0.00872665, 0.0, 0.0, 0.0, 0.00872665, 0.0, 0.0, 0.0, 0.00872665)",0.395485639572,-0.295849442482,1.50186657906,"(0.000872665, 0.0, 0.0, 0.0, 0.000872665, 0.0, 0.0, 0.0, 0.000872665)",0.916140432805,2.13020775899,-0.379680762291,"(0.003, 0.0, 0.0, 0.0, 0.003, 0.0, 0.0, 0.0, 0.003)"
2022/01/11/19:04:52.759342,11978,1641924292,758991871,imu_iphone,-0.0532484362999,0.0927243720396,-0.12872125364,0.98589940345,"(0.00872665, 0.0, 0.0, 0.0, 0.00872665, 0.0, 0.0, 0.0, 0.00872665)",0.336591809988,-0.282124578953,1.39137780666,"(0.000872665, 0.0, 0.0, 0.0, 0.000872665, 0.0, 0.0, 0.0, 0.000872665)",1.13499776781,2.24380454108,-0.332394329309,"(0.003, 0.0, 0.0, 0.0, 0.003, 0.0, 0.0, 0.0, 0.003)"
2022/01/11/19:04:52.789168,11979,1641924292,788325673,imu_iphone,-0.0624380753302,0.094154644377,-0.107533397586,0.987761589704,"(0.00872665, 0.0, 0.0, 0.0, 0.00872665, 0.0, 0.0, 0.0, 0.00872665)",0.27300298214,-0.258008867502,1.27821135521,"(0.000872665, 0.0, 0.0, 0.0, 0.000872665, 0.0, 0.0, 0.0, 0.000872665)",1.34507243872,2.3355874081,-0.2679357934,"(0.003, 0.0, 0.0, 0.0, 0.003, 0.0, 0.0, 0.0, 0.003)"
2022/01/11/19:04:52.818356,11980,1641924292,817948805,imu_iphone,-0.0709530861062,0.0943031023608,-0.0882783616963,0.989080135941,"(0.00872665, 0.0, 0.0, 0.0, 0.00872665, 0.0, 0.0, 0.0, 0.00872665)",0.202498316765,-0.227835103869,1.15569794178,"(0.000872665, 0.0, 0.0, 0.0, 0.000872665, 0.0, 0.0, 0.0, 0.000872665)",1.55115989327,2.42294188634,-0.195866521597,"(0.003, 0.0, 0.0, 0.0, 0.003, 0.0, 0.0, 0.0, 0.003)"
2022/01/11/19:04:52.855049,11981,1641924292,854485382,imu_iphone,-0.0784279562051,0.0932766585121,-0.0712000392592,0.989989431798,"(0.00872665, 0.0, 0.0, 0.0, 0.00872665, 0.0, 0.0, 0.0, 0.00872665)",0.12914276123,-0.180517882109,1.02559292316,"(0.000872665, 0.0, 0.0, 0.0, 0.000872665, 0.0, 0.0, 0.0, 0.000872665)",1.75619134068,2.47579969257,-0.159959354997,"(0.003, 0.0, 0.0, 0.0, 0.003, 0.0, 0.0, 0.0, 0.003)"
2022/01/11/19:04:52.877690,11982,1641924292,877362105,imu_iphone,-0.0846049288594,0.0912250833949,-0.0565121581507,0.990619183215,"(0.00872665, 0.0, 0.0, 0.0, 0.00872665, 0.0, 0.0, 0.0, 0.00872665)",0.0523077696562,-0.125042021275,0.888380467892,"(0.000872665, 0.0, 0.0, 0.0, 0.000872665, 0.0, 0.0, 0.0, 0.000872665)",1.9004520911,2.48651032984,-0.11765416503,"(0.003, 0.0, 0.0, 0.0, 0.003, 0.0, 0.0, 0.0, 0.003)"
2022/01/11/19:04:52.907675,11983,1641924292,907284638,imu_iphone,-0.0892877041242,0.0883263079721,-0.0443568752732,0.991089620987,"(0.00872665, 0.0, 0.0, 0.0, 0.00872665, 0.0, 0.0, 0.0, 0.00872665)",-0.0270716026425,-0.0678865611553,0.742947161198,"(0.000872665, 0.0, 0.0, 0.0, 0.000872665, 0.0, 0.0, 0.0, 0.000872665)",2.01037345961,2.46055863261,-0.109049402475,"(0.003, 0.0, 0.0, 0.0, 0.003, 0.0, 0.0, 0.0, 0.003)"
2022/01/11/19:04:52.937414,11984,1641924292,937064312,imu_iphone,-0.0923287250965,0.0847679601745,-0.0349131490602,0.991499304827,"(0.00872665, 0.0, 0.0, 0.0, 0.00872665, 0.0, 0.0, 0.0, 0.00872665)",-0.100785940886,-0.000183419324458,0.57880282402,"(0.000872665, 0.0, 0.0, 0.0, 0.000872665, 0.0, 0.0, 0.0, 0.000872665)",2.05997802123,2.39348522186,-0.0905862343311,"(0.003, 0.0, 0.0, 0.0, 0.003, 0.0, 0.0, 0.0, 0.003)"
2022/01/11/19:04:52.967298,11985,1641924292,966931920,imu_iphone,-0.0936644630697,0.080757912827,-0.028357988875,0.991917815316,"(0.00872665, 0.0, 0.0, 0.0, 0.00872665, 0.0, 0.0, 0.0, 0.00872665)",-0.175925821066,0.0640767514706,0.403035610914,"(0.000872665, 0.0, 0.0, 0.0, 0.000872665, 0.0, 0.0, 0.0, 0.000872665)",2.05129461363,2.31125480488,-0.116416894197,"(0.003, 0.0, 0.0, 0.0, 0.003, 0.0, 0.0, 0.0, 0.003)"
2022/01/11/19:04:52.997072,11986,1641924292,996739644,imu_iphone,-0.0933120854125,0.0764221622774,-0.024829702712,0.99238903344,"(0.00872665, 0.0, 0.0, 0.0, 0.00872665, 0.0, 0.0, 0.0, 0.00872665)",-0.242596417665,0.126760989428,0.218629896641,"(0.000872665, 0.0, 0.0, 0.0, 0.000872665, 0.0, 0.0, 0.0, 0.000872665)",1.99493564084,2.19022855058,-0.155491497517,"(0.003, 0.0, 0.0, 0.0, 0.003, 0.0, 0.0, 0.0, 0.003)"
2022/01/11/19:04:53.027504,11987,1641924293,26704903,imu_iphone,-0.0913885160419,0.0719002966102,-0.0243364302951,0.992918035209,"(0.00872665, 0.0, 0.0, 0.0, 0.00872665, 0.0, 0.0, 0.0, 0.00872665)",-0.309910804033,0.186802014709,0.0344583429396,"(0.000872665, 0.0, 0.0, 0.0, 0.000872665, 0.0, 0.0, 0.0, 0.000872665)",1.8741013214,2.05804960951,-0.21769125402,"(0.003, 0.0, 0.0, 0.0, 0.003, 0.0, 0.0, 0.0, 0.003)"
2022/01/11/19:04:53.057064,11988,1641924293,56663357,imu_iphone,-0.0880653489568,0.0672140334874,-0.0268361571255,0.993482052523,"(0.00872665, 0.0, 0.0, 0.0, 0.00872665, 0.0, 0.0, 0.0, 0.00872665)",-0.366889119148,0.236017554998,-0.150187149644,"(0.000872665, 0.0, 0.0, 0.0, 0.000872665, 0.0, 0.0, 0.0, 0.000872665)",1.74523365855,1.90114995629,-0.265199881196,"(0.003, 0.0, 0.0, 0.0, 0.003, 0.0, 0.0, 0.0, 0.003)"
2022/01/11/19:04:53.086297,11989,1641924293,85953156,imu_iphone,-0.0836078692426,0.0623096265163,-0.0321976882725,0.994027435997,"(0.00872665, 0.0, 0.0, 0.0, 0.00872665, 0.0, 0.0, 0.0, 0.00872665)",-0.425423562527,0.277899026871,-0.335458010435,"(0.000872665, 0.0, 0.0, 0.0, 0.000872665, 0.0, 0.0, 0.0, 0.000872665)",1.60842869282,1.72672327414,-0.354928913713,"(0.003, 0.0, 0.0, 0.0, 0.003, 0.0, 0.0, 0.0, 0.003)"
2022/01/11/19:04:53.116647,11990,1641924293,116254087,imu_iphone,-0.0782409219821,0.0571743123693,-0.0403198482169,0.994476629173,"(0.00872665, 0.0, 0.0, 0.0, 0.00872665, 0.0, 0.0, 0.0, 0.00872665)",-0.474367767572,0.30944865942,-0.512500047684,"(0.000872665, 0.0, 0.0, 0.0, 0.000872665, 0.0, 0.0, 0.0, 0.000872665)",1.46585720301,1.55063642129,-0.413116310835,"(0.003, 0.0, 0.0, 0.0, 0.003, 0.0, 0.0, 0.0, 0.003)"
2022/01/11/19:04:53.146035,11991,1641924293,145691174,imu_iphone,-0.0721941073297,0.0517852202592,-0.0510956515592,0.994733902218,"(0.00872665, 0.0, 0.0, 0.0, 0.00872665, 0.0, 0.0, 0.0, 0.00872665)",-0.518317222595,0.337572544813,-0.687399983406,"(0.000872665, 0.0, 0.0, 0.0, 0.000872665, 0.0, 0.0, 0.0, 0.000872665)",1.31331021711,1.33377883404,-0.481345131397,"(0.003, 0.0, 0.0, 0.0, 0.003, 0.0, 0.0, 0.0, 0.003)"
2022/01/11/19:04:53.178896,11992,1641924293,178396626,imu_iphone,-0.0657203262333,0.0460778795331,-0.0644174563571,0.994689931111,"(0.00872665, 0.0, 0.0, 0.0, 0.00872665, 0.0, 0.0, 0.0, 0.00872665)",-0.550660908222,0.356953829527,-0.860205709934,"(0.000872665, 0.0, 0.0, 0.0, 0.000872665, 0.0, 0.0, 0.0, 0.000872665)",1.14772350177,1.11975444205,-0.547023396492,"(0.003, 0.0, 0.0, 0.0, 0.003, 0.0, 0.0, 0.0, 0.003)"
2022/01/11/19:04:53.209281,11993,1641924293,205463035,imu_iphone,-0.0590792954676,0.040032503823,-0.0801277491253,0.994226623716,"(0.00872665, 0.0, 0.0, 0.0, 0.00872665, 0.0, 0.0, 0.0, 0.00872665)",-0.582773804665,0.365916758776,-1.02200365067,"(0.000872665, 0.0, 0.0, 0.0, 0.000872665, 0.0, 0.0, 0.0, 0.000872665)",0.975726922452,0.88636187911,-0.579975380301,"(0.003, 0.0, 0.0, 0.0, 0.003, 0.0, 0.0, 0.0, 0.003)"
2022/01/11/19:04:53.235940,11994,1641924293,235545210,imu_iphone,-0.0525375161492,0.0336063371759,-0.0981421354954,0.993216262824,"(0.00872665, 0.0, 0.0, 0.0, 0.00872665, 0.0, 0.0, 0.0, 0.00872665)",-0.604333639145,0.370313376188,-1.18825054169,"(0.000872665, 0.0, 0.0, 0.0, 0.000872665, 0.0, 0.0, 0.0, 0.000872665)",0.806490155831,0.662992759421,-0.60995347023,"(0.003, 0.0, 0.0, 0.0, 0.003, 0.0, 0.0, 0.0, 0.003)"
2022/01/11/19:04:53.265013,11995,1641924293,264699157,imu_iphone,-0.0463318189659,0.0268309905622,-0.118335576113,0.991529198724,"(0.00872665, 0.0, 0.0, 0.0, 0.00872665, 0.0, 0.0, 0.0, 0.00872665)",-0.619409620762,0.36650082469,-1.34547185898,"(0.000872665, 0.0, 0.0, 0.0, 0.000872665, 0.0, 0.0, 0.0, 0.000872665)",0.650176174343,0.444631414488,-0.637782123685,"(0.003, 0.0, 0.0, 0.0, 0.003, 0.0, 0.0, 0.0, 0.003)"
2022/01/11/19:04:53.295331,11996,1641924293,295001100,imu_iphone,-0.0407148422672,0.0197158301838,-0.140550851965,0.989039456074,"(0.00872665, 0.0, 0.0, 0.0, 0.00872665, 0.0, 0.0, 0.0, 0.00872665)",-0.632690668106,0.353697538376,-1.48900341988,"(0.000872665, 0.0, 0.0, 0.0, 0.000872665, 0.0, 0.0, 0.0, 0.000872665)",0.511380377859,0.270159599148,-0.661807748079,"(0.003, 0.0, 0.0, 0.0, 0.003, 0.0, 0.0, 0.0, 0.003)"
2022/01/11/19:04:53.324547,11997,1641924293,324249325,imu_iphone,-0.035934791035,0.0122506367879,-0.164485245372,0.985648627426,"(0.00872665, 0.0, 0.0, 0.0, 0.00872665, 0.0, 0.0, 0.0, 0.00872665)",-0.642396748066,0.339774698019,-1.61444973946,"(0.000872665, 0.0, 0.0, 0.0, 0.000872665, 0.0, 0.0, 0.0, 0.000872665)",0.3862812455,0.0764817360509,-0.686311089993,"(0.003, 0.0, 0.0, 0.0, 0.003, 0.0, 0.0, 0.0, 0.003)"
2022/01/11/19:04:53.355195,11998,1641924293,354767337,imu_iphone,-0.0321889599228,0.00449234812511,-0.189862427442,0.981272616714,"(0.00872665, 0.0, 0.0, 0.0, 0.00872665, 0.0, 0.0, 0.0, 0.00872665)",-0.651193678379,0.31867697835,-1.71835112572,"(0.000872665, 0.0, 0.0, 0.0, 0.000872665, 0.0, 0.0, 0.0, 0.000872665)",0.289775143862,-0.0980833880603,-0.697168200016,"(0.003, 0.0, 0.0, 0.0, 0.003, 0.0, 0.0, 0.0, 0.003)"
2022/01/11/19:04:53.384402,11999,1641924293,384026431,imu_iphone,-0.0296632013816,-0.00346458941816,-0.216308333375,0.975868226768,"(0.00872665, 0.0, 0.0, 0.0, 0.00872665, 0.0, 0.0, 0.0, 0.00872665)",-0.651740193367,0.294748932123,-1.80173170567,"(0.000872665, 0.0, 0.0, 0.0, 0.000872665, 0.0, 0.0, 0.0, 0.000872665)",0.196684912518,-0.289821665771,-0.686757232547,"(0.003, 0.0, 0.0, 0.0, 0.003, 0.0, 0.0, 0.0, 0.003)"
2022/01/11/19:04:53.414543,12000,1641924293,414211739,imu_iphone,-0.0284860017183,-0.0114959106471,-0.243496734895,0.969415149376,"(0.00872665, 0.0, 0.0, 0.0, 0.00872665, 0.0, 0.0, 0.0, 0.00872665)",-0.656989336014,0.266580224037,-1.86118757725,"(0.000872665, 0.0, 0.0, 0.0, 0.000872665, 0.0, 0.0, 0.0, 0.000872665)",0.1132574974,-0.446350057349,-0.685227016211,"(0.003, 0.0, 0.0, 0.0, 0.003, 0.0, 0.0, 0.0, 0.003)"
2022/01/11/19:04:53.444537,12001,1641924293,443612075,imu_iphone,-0.0287163762997,-0.0195075601147,-0.27097934775,0.961958948149,"(0.00872665, 0.0, 0.0, 0.0, 0.00872665, 0.0, 0.0, 0.0, 0.00872665)",-0.65800511837,0.232472971082,-1.88435959816,"(0.000872665, 0.0, 0.0, 0.0, 0.000872665, 0.0, 0.0, 0.0, 0.000872665)",0.061201929152,-0.631173162013,-0.690358532667,"(0.003, 0.0, 0.0, 0.0, 0.003, 0.0, 0.0, 0.0, 0.003)"
2022/01/11/19:04:53.477424,12002,1641924293,477009207,imu_iphone,-0.0304209843729,-0.0273007355267,-0.298428216906,0.953556413068,"(0.00872665, 0.0, 0.0, 0.0, 0.00872665, 0.0, 0.0, 0.0, 0.00872665)",-0.658497035503,0.197869434953,-1.88865816593,"(0.000872665, 0.0, 0.0, 0.0, 0.000872665, 0.0, 0.0, 0.0, 0.000872665)",0.0280316249281,-0.797108225226,-0.678237839341,"(0.003, 0.0, 0.0, 0.0, 0.003, 0.0, 0.0, 0.0, 0.003)"
2022/01/11/19:04:53.513139,12003,1641924293,512770406,imu_iphone,-0.033529861455,-0.0347368643955,-0.325483411529,0.94431437957,"(0.00872665, 0.0, 0.0, 0.0, 0.00872665, 0.0, 0.0, 0.0, 0.00872665)",-0.654670476913,0.161851659417,-1.86476147175,"(0.000872665, 0.0, 0.0, 0.0, 0.000872665, 0.0, 0.0, 0.0, 0.000872665)",0.00705912418664,-0.986588710248,-0.66080319643,"(0.003, 0.0, 0.0, 0.0, 0.003, 0.0, 0.0, 0.0, 0.003)"
2022/01/11/19:04:53.533618,12004,1641924293,533215067,imu_iphone,-0.0379545442016,-0.0416466159398,-0.351770988673,0.934388668319,"(0.00872665, 0.0, 0.0, 0.0, 0.00872665, 0.0, 0.0, 0.0, 0.00872665)",-0.651030421257,0.129757121205,-1.81502890587,"(0.000872665, 0.0, 0.0, 0.0, 0.000872665, 0.0, 0.0, 0.0, 0.000872665)",0.025171569027,-1.17214293614,-0.670328310728,"(0.003, 0.0, 0.0, 0.0, 0.003, 0.0, 0.0, 0.0, 0.003)"
2022/01/11/19:04:53.563117,12005,1641924293,562784895,imu_iphone,-0.04352035924,-0.0479092767509,-0.376989804648,0.923953119333,"(0.00872665, 0.0, 0.0, 0.0, 0.00872665, 0.0, 0.0, 0.0, 0.00872665)",-0.640101909637,0.0931753665209,-1.74176621437,"(0.000872665, 0.0, 0.0, 0.0, 0.000872665, 0.0, 0.0, 0.0, 0.000872665)",0.0355018814653,-1.37002411589,-0.648616429567,"(0.003, 0.0, 0.0, 0.0, 0.003, 0.0, 0.0, 0.0, 0.003)"
2022/01/11/19:04:53.592995,12006,1641924293,592682871,imu_iphone,-0.0500400375327,-0.0534395396876,-0.400890959898,0.913195843461,"(0.00872665, 0.0, 0.0, 0.0, 0.00872665, 0.0, 0.0, 0.0, 0.00872665)",-0.624883651733,0.0617328993976,-1.65308725834,"(0.000872665, 0.0, 0.0, 0.0, 0.000872665, 0.0, 0.0, 0.0, 0.000872665)",0.102611325681,-1.57304850653,-0.612304635644,"(0.003, 0.0, 0.0, 0.0, 0.003, 0.0, 0.0, 0.0, 0.003)"
2022/01/11/19:04:53.623298,12007,1641924293,623010406,imu_iphone,-0.0572536711252,-0.0581589543491,-0.423292656797,0.90230974719,"(0.00872665, 0.0, 0.0, 0.0, 0.00872665, 0.0, 0.0, 0.0, 0.00872665)",-0.607913553715,0.0337310656905,-1.54907512665,"(0.000872665, 0.0, 0.0, 0.0, 0.000872665, 0.0, 0.0, 0.0, 0.000872665)",0.17700460989,-1.78531573713,-0.583186671138,"(0.003, 0.0, 0.0, 0.0, 0.003, 0.0, 0.0, 0.0, 0.003)"
2022/01/11/19:04:53.652643,12008,1641924293,652232808,imu_iphone,-0.0648881218761,-0.0620676883575,-0.444082120055,0.891475296544,"(0.00872665, 0.0, 0.0, 0.0, 0.00872665, 0.0, 0.0, 0.0, 0.00872665)",-0.577611744404,0.0111321117729,-1.44149553776,"(0.000872665, 0.0, 0.0, 0.0, 0.000872665, 0.0, 0.0, 0.0, 0.000872665)",0.264088544771,-2.00977733597,-0.563700240254,"(0.003, 0.0, 0.0, 0.0, 0.003, 0.0, 0.0, 0.0, 0.003)"
2022/01/11/19:04:53.682125,12009,1641924293,681834927,imu_iphone,-0.0726741350834,-0.0650942044051,-0.463268130956,0.880831342246,"(0.00872665, 0.0, 0.0, 0.0, 0.00872665, 0.0, 0.0, 0.0, 0.00872665)",-0.541215956211,-0.00735327973962,-1.33025705814,"(0.000872665, 0.0, 0.0, 0.0, 0.000872665, 0.0, 0.0, 0.0, 0.000872665)",0.382122267187,-2.24161256611,-0.508289685845,"(0.003, 0.0, 0.0, 0.0, 0.003, 0.0, 0.0, 0.0, 0.003)"
2022/01/11/19:04:53.712170,12010,1641924293,711799878,imu_iphone,-0.0803022889909,-0.0672692026477,-0.480824910543,0.870536502485,"(0.00872665, 0.0, 0.0, 0.0, 0.00872665, 0.0, 0.0, 0.0, 0.00872665)",-0.491662174463,-0.0115703418851,-1.21740067005,"(0.000872665, 0.0, 0.0, 0.0, 0.000872665, 0.0, 0.0, 0.0, 0.000872665)",0.511073399037,-2.45526661009,-0.468425708413,"(0.003, 0.0, 0.0, 0.0, 0.003, 0.0, 0.0, 0.0, 0.003)"
2022/01/11/19:04:53.741887,12011,1641924293,741533609,imu_iphone,-0.0874631083238,-0.06866635282,-0.496748566794,0.860741539639,"(0.00872665, 0.0, 0.0, 0.0, 0.00872665, 0.0, 0.0, 0.0, 0.00872665)",-0.432083964348,-0.0117496708408,-1.10731172562,"(0.000872665, 0.0, 0.0, 0.0, 0.000872665, 0.0, 0.0, 0.0, 0.000872665)",0.640017148778,-2.66499600291,-0.417285375595,"(0.003, 0.0, 0.0, 0.0, 0.003, 0.0, 0.0, 0.0, 0.003)"
2022/01/11/19:04:53.771676,12012,1641924293,771329717,imu_iphone,-0.0938989232351,-0.0693377679333,-0.511074301401,0.851574027669,"(0.00872665, 0.0, 0.0, 0.0, 0.00872665, 0.0, 0.0, 0.0, 0.00872665)",-0.368560761213,0.000107215717435,-1.00165593624,"(0.000872665, 0.0, 0.0, 0.0, 0.000872665, 0.0, 0.0, 0.0, 0.000872665)",0.755628004298,-2.84399096847,-0.356082569361,"(0.003, 0.0, 0.0, 0.0, 0.003, 0.0, 0.0, 0.0, 0.003)"
2022/01/11/19:04:53.801327,12013,1641924293,801020736,imu_iphone,-0.0993717698688,-0.069366763848,-0.523811094827,0.843169876338,"(0.00872665, 0.0, 0.0, 0.0, 0.00872665, 0.0, 0.0, 0.0, 0.00872665)",-0.294840157032,0.0193217471242,-0.889880478382,"(0.000872665, 0.0, 0.0, 0.0, 0.000872665, 0.0, 0.0, 0.0, 0.000872665)",0.873381718174,-2.99926787317,-0.297280045152,"(0.003, 0.0, 0.0, 0.0, 0.003, 0.0, 0.0, 0.0, 0.003)"
2022/01/11/19:04:53.831172,12014,1641924293,830846073,imu_iphone,-0.103631226035,-0.0689169531678,-0.53485155979,0.835730118846,"(0.00872665, 0.0, 0.0, 0.0, 0.00872665, 0.0, 0.0, 0.0, 0.00872665)",-0.214870452881,0.0453645251691,-0.770136415958,"(0.000872665, 0.0, 0.0, 0.0, 0.000872665, 0.0, 0.0, 0.0, 0.000872665)",0.947003937364,-3.09783672631,-0.256442506313,"(0.003, 0.0, 0.0, 0.0, 0.003, 0.0, 0.0, 0.0, 0.003)"
2022/01/11/19:04:53.861645,12015,1641924293,860858418,imu_iphone,-0.106539048506,-0.0681169420916,-0.544138619251,0.829411041874,"(0.00872665, 0.0, 0.0, 0.0, 0.00872665, 0.0, 0.0, 0.0, 0.00872665)",-0.133140414953,0.0733501166105,-0.644958198071,"(0.000872665, 0.0, 0.0, 0.0, 0.000872665, 0.0, 0.0, 0.0, 0.000872665)",0.971919873431,-3.16961042136,-0.233649474978,"(0.003, 0.0, 0.0, 0.0, 0.003, 0.0, 0.0, 0.0, 0.003)"
2022/01/11/19:04:53.890656,12016,1641924293,890290210,imu_iphone,-0.108031956886,-0.067082189733,-0.551634659862,0.824335052118,"(0.00872665, 0.0, 0.0, 0.0, 0.00872665, 0.0, 0.0, 0.0, 0.00872665)",-0.052190143615,0.101195119321,-0.519404292107,"(0.000872665, 0.0, 0.0, 0.0, 0.000872665, 0.0, 0.0, 0.0, 0.000872665)",0.947717005312,-3.17746878684,-0.219526695013,"(0.003, 0.0, 0.0, 0.0, 0.003, 0.0, 0.0, 0.0, 0.003)"
2022/01/11/19:04:53.920614,12017,1641924293,920233198,imu_iphone,-0.108112521574,-0.0659052269729,-0.557346233695,0.820568924297,"(0.00872665, 0.0, 0.0, 0.0, 0.00872665, 0.0, 0.0, 0.0, 0.00872665)",0.028647787869,0.126332581043,-0.390216827393,"(0.000872665, 0.0, 0.0, 0.0, 0.000872665, 0.0, 0.0, 0.0, 0.000872665)",0.903274000213,-3.15053358793,-0.219042545557,"(0.003, 0.0, 0.0, 0.0, 0.003, 0.0, 0.0, 0.0, 0.003)"
2022/01/11/19:04:53.950547,12018,1641924293,950230433,imu_iphone,-0.10680981514,-0.0646393334342,-0.561258649529,0.818169999628,"(0.00872665, 0.0, 0.0, 0.0, 0.00872665, 0.0, 0.0, 0.0, 0.00872665)",0.106753595173,0.147173956037,-0.255344867706,"(0.000872665, 0.0, 0.0, 0.0, 0.000872665, 0.0, 0.0, 0.0, 0.000872665)",0.850229448527,-3.086486696,-0.239047624469,"(0.003, 0.0, 0.0, 0.0, 0.003, 0.0, 0.0, 0.0, 0.003)"
2022/01/11/19:04:53.980165,12019,1641924293,979866306,imu_iphone,-0.104196010431,-0.0633100282932,-0.563354672936,0.817169838044,"(0.00872665, 0.0, 0.0, 0.0, 0.00872665, 0.0, 0.0, 0.0, 0.00872665)",0.185017228127,0.167546287179,-0.120321042836,"(0.000872665, 0.0, 0.0, 0.0, 0.000872665, 0.0, 0.0, 0.0, 0.000872665)",0.776498178765,-2.9976446861,-0.267251084447,"(0.003, 0.0, 0.0, 0.0, 0.003, 0.0, 0.0, 0.0, 0.003)"
2022/01/11/19:04:54.012516,12020,1641924294,12218147,imu_iphone,-0.100318108993,-0.0619064895376,-0.56360392671,0.817590653908,"(0.00872665, 0.0, 0.0, 0.0, 0.00872665, 0.0, 0.0, 0.0, 0.00872665)",0.255603224039,0.178109645844,0.0213830396533,"(0.000872665, 0.0, 0.0, 0.0, 0.000872665, 0.0, 0.0, 0.0, 0.000872665)",0.694737147018,-2.89930153549,-0.296891790032,"(0.003, 0.0, 0.0, 0.0, 0.003, 0.0, 0.0, 0.0, 0.003)"
2022/01/11/19:04:54.043291,12021,1641924294,39530572,imu_iphone,-0.095285422356,-0.0603903868878,-0.562045826625,0.819376701055,"(0.00872665, 0.0, 0.0, 0.0, 0.00872665, 0.0, 0.0, 0.0, 0.00872665)",0.327785640955,0.194302171469,0.156994625926,"(0.000872665, 0.0, 0.0, 0.0, 0.000872665, 0.0, 0.0, 0.0, 0.000872665)",0.602726384774,-2.77931550086,-0.342946214676,"(0.003, 0.0, 0.0, 0.0, 0.003, 0.0, 0.0, 0.0, 0.003)"
2022/01/11/19:04:54.070036,12022,1641924294,69699340,imu_iphone,-0.0891964939462,-0.0586430270603,-0.558761596237,0.822429607575,"(0.00872665, 0.0, 0.0, 0.0, 0.00872665, 0.0, 0.0, 0.0, 0.00872665)",0.3943605721,0.199202537537,0.288379073143,"(0.000872665, 0.0, 0.0, 0.0, 0.000872665, 0.0, 0.0, 0.0, 0.000872665)",0.527392027751,-2.62900492877,-0.364427130818,"(0.003, 0.0, 0.0, 0.0, 0.003, 0.0, 0.0, 0.0, 0.003)"
2022/01/11/19:04:54.100029,12023,1641924294,98754038,imu_iphone,-0.0821753321076,-0.0565541804816,-0.553789550844,0.826659526552,"(0.00872665, 0.0, 0.0, 0.0, 0.00872665, 0.0, 0.0, 0.0, 0.00872665)",0.45733961463,0.20676779747,0.420675188303,"(0.000872665, 0.0, 0.0, 0.0, 0.000872665, 0.0, 0.0, 0.0, 0.000872665)",0.440652676597,-2.45587676704,-0.419326053858,"(0.003, 0.0, 0.0, 0.0, 0.003, 0.0, 0.0, 0.0, 0.003)"
2022/01/11/19:04:54.129300,12024,1641924294,128918921,imu_iphone,-0.0743519413283,-0.0540553576839,-0.547175367287,0.831954881325,"(0.00872665, 0.0, 0.0, 0.0, 0.00872665, 0.0, 0.0, 0.0, 0.00872665)",0.513381004333,0.20875929296,0.545197308064,"(0.000872665, 0.0, 0.0, 0.0, 0.000872665, 0.0, 0.0, 0.0, 0.000872665)",0.334548735917,-2.24263582885,-0.473253169656,"(0.003, 0.0, 0.0, 0.0, 0.003, 0.0, 0.0, 0.0, 0.003)"
2022/01/11/19:04:54.161425,12025,1641924294,161134812,imu_iphone,-0.0658844605151,-0.0510309172008,-0.539007059384,0.838168523202,"(0.00872665, 0.0, 0.0, 0.0, 0.00872665, 0.0, 0.0, 0.0, 0.00872665)",0.56524348259,0.208604007959,0.664544463158,"(0.000872665, 0.0, 0.0, 0.0, 0.000872665, 0.0, 0.0, 0.0, 0.000872665)",0.240672967695,-2.02453000724,-0.531886709332,"(0.003, 0.0, 0.0, 0.0, 0.003, 0.0, 0.0, 0.0, 0.003)"
2022/01/11/19:04:54.187907,12026,1641924294,187566171,imu_iphone,-0.0569853289266,-0.0473841261608,-0.529345917357,0.845162893561,"(0.00872665, 0.0, 0.0, 0.0, 0.00872665, 0.0, 0.0, 0.0, 0.00872665)",0.60721963644,0.202833428979,0.78353613615,"(0.000872665, 0.0, 0.0, 0.0, 0.000872665, 0.0, 0.0, 0.0, 0.000872665)",0.144456632137,-1.7529841429,-0.56012349844,"(0.003, 0.0, 0.0, 0.0, 0.003, 0.0, 0.0, 0.0, 0.003)"
2022/01/11/19:04:54.220016,12027,1641924294,218541879,imu_iphone,-0.0478438381481,-0.0430259655002,-0.518200348217,0.852835349028,"(0.00872665, 0.0, 0.0, 0.0, 0.00872665, 0.0, 0.0, 0.0, 0.00872665)",0.643131375313,0.18977715075,0.901174664497,"(0.000872665, 0.0, 0.0, 0.0, 0.000872665, 0.0, 0.0, 0.0, 0.000872665)",0.0135808161646,-1.48194727868,-0.587628800869,"(0.003, 0.0, 0.0, 0.0, 0.003, 0.0, 0.0, 0.0, 0.003)"
2022/01/11/19:04:54.248776,12028,1641924294,248074293,imu_iphone,-0.0387735099031,-0.0379397176735,-0.505594138769,0.86106431792,"(0.00872665, 0.0, 0.0, 0.0, 0.00872665, 0.0, 0.0, 0.0, 0.00872665)",0.664406299591,0.170213863254,1.01219141483,"(0.000872665, 0.0, 0.0, 0.0, 0.000872665, 0.0, 0.0, 0.0, 0.000872665)",-0.119631967451,-1.19652524069,-0.628051772118,"(0.003, 0.0, 0.0, 0.0, 0.003, 0.0, 0.0, 0.0, 0.003)"
2022/01/11/19:04:54.278616,12029,1641924294,278159060,imu_iphone,-0.0300208832391,-0.0320801985425,-0.491588781025,0.869718389941,"(0.00872665, 0.0, 0.0, 0.0, 0.00872665, 0.0, 0.0, 0.0, 0.00872665)",0.681540668011,0.145227074623,1.11679422855,"(0.000872665, 0.0, 0.0, 0.0, 0.000872665, 0.0, 0.0, 0.0, 0.000872665)",-0.2408177411,-0.893096555918,-0.631689324975,"(0.003, 0.0, 0.0, 0.0, 0.003, 0.0, 0.0, 0.0, 0.003)"
2022/01/11/19:04:54.308018,12030,1641924294,307648412,imu_iphone,-0.0218906397383,-0.0254842226106,-0.476114774679,0.878741188077,"(0.00872665, 0.0, 0.0, 0.0, 0.00872665, 0.0, 0.0, 0.0, 0.00872665)",0.684736609459,0.112543180585,1.23221111298,"(0.000872665, 0.0, 0.0, 0.0, 0.000872665, 0.0, 0.0, 0.0, 0.000872665)",-0.330666184723,-0.580242159516,-0.600541207194,"(0.003, 0.0, 0.0, 0.0, 0.003, 0.0, 0.0, 0.0, 0.003)"
2022/01/11/19:04:54.337821,12031,1641924294,337186967,imu_iphone,-0.014650722848,-0.0182219105643,-0.459064400196,0.888095262215,"(0.00872665, 0.0, 0.0, 0.0, 0.00872665, 0.0, 0.0, 0.0, 0.00872665)",0.675721287727,0.0736981108785,1.33857476711,"(0.000872665, 0.0, 0.0, 0.0, 0.000872665, 0.0, 0.0, 0.0, 0.000872665)",-0.396527613848,-0.314144803807,-0.607534477115,"(0.003, 0.0, 0.0, 0.0, 0.003, 0.0, 0.0, 0.0, 0.003)"
2022/01/11/19:04:54.367723,12032,1641924294,367361507,imu_iphone,-0.00855354806424,-0.0103647826467,-0.44050504788,0.897649547924,"(0.00872665, 0.0, 0.0, 0.0, 0.00872665, 0.0, 0.0, 0.0, 0.00872665)",0.662423431873,0.0317550264299,1.43955993652,"(0.000872665, 0.0, 0.0, 0.0, 0.000872665, 0.0, 0.0, 0.0, 0.000872665)",-0.427969115674,-0.0599280949496,-0.579245647788,"(0.003, 0.0, 0.0, 0.0, 0.003, 0.0, 0.0, 0.0, 0.003)"
2022/01/11/19:04:54.397333,12033,1641924294,397013867,imu_iphone,-0.00376172721998,-0.00204403427677,-0.420473876082,0.907294544712,"(0.00872665, 0.0, 0.0, 0.0, 0.00872665, 0.0, 0.0, 0.0, 0.00872665)",0.64688628912,-0.00574480183423,1.53083896637,"(0.000872665, 0.0, 0.0, 0.0, 0.000872665, 0.0, 0.0, 0.0, 0.000872665)",-0.42321584098,0.178070118763,-0.572619583011,"(0.003, 0.0, 0.0, 0.0, 0.003, 0.0, 0.0, 0.0, 0.003)"
2022/01/11/19:04:54.427465,12034,1641924294,427013328,imu_iphone,-0.000396546650429,0.00660079555171,-0.399076376474,0.916893842268,"(0.00872665, 0.0, 0.0, 0.0, 0.00872665, 0.0, 0.0, 0.0, 0.00872665)",0.622817635536,-0.0462718121707,1.60211551189,"(0.000872665, 0.0, 0.0, 0.0, 0.000872665, 0.0, 0.0, 0.0, 0.000872665)",-0.399829536527,0.354393162578,-0.557699827552,"(0.003, 0.0, 0.0, 0.0, 0.003, 0.0, 0.0, 0.0, 0.003)"
2022/01/11/19:04:54.458254,12035,1641924294,456452207,imu_iphone,0.00146807554619,0.0154338394918,-0.376548462091,0.926267184483,"(0.00872665, 0.0, 0.0, 0.0, 0.00872665, 0.0, 0.0, 0.0, 0.00872665)",0.603359818459,-0.0819351375103,1.65434360504,"(0.000872665, 0.0, 0.0, 0.0, 0.000872665, 0.0, 0.0, 0.0, 0.000872665)",-0.351244875491,0.546849222556,-0.545840504766,"(0.003, 0.0, 0.0, 0.0, 0.003, 0.0, 0.0, 0.0, 0.003)"
2022/01/11/19:04:54.486676,12036,1641924294,486399009,imu_iphone,0.00181552931406,0.0242687498404,-0.353068445747,0.935280922639,"(0.00872665, 0.0, 0.0, 0.0, 0.00872665, 0.0, 0.0, 0.0, 0.00872665)",0.577110409737,-0.116691961884,1.69076263905,"(0.000872665, 0.0, 0.0, 0.0, 0.000872665, 0.0, 0.0, 0.0, 0.000872665)",-0.298999108281,0.71298272565,-0.497060692906,"(0.003, 0.0, 0.0, 0.0, 0.003, 0.0, 0.0, 0.0, 0.003)"
2022/01/11/19:04:54.517967,12037,1641924294,516035235,imu_iphone,0.000657919887113,0.0329512897333,-0.32891600854,0.943783894211,"(0.00872665, 0.0, 0.0, 0.0, 0.00872665, 0.0, 0.0, 0.0, 0.00872665)",0.553168356419,-0.148498475552,1.69802033901,"(0.000872665, 0.0, 0.0, 0.0, 0.000872665, 0.0, 0.0, 0.0, 0.000872665)",-0.223306298666,0.849566958994,-0.505853735805,"(0.003, 0.0, 0.0, 0.0, 0.003, 0.0, 0.0, 0.0, 0.003)"
2022/01/11/19:04:54.546682,12038,1641924294,546388698,imu_iphone,-0.00189736827214,0.0413116515754,-0.304495217002,0.951615684119,"(0.00872665, 0.0, 0.0, 0.0, 0.00872665, 0.0, 0.0, 0.0, 0.00872665)",0.52480661869,-0.176531016827,1.67947685719,"(0.000872665, 0.0, 0.0, 0.0, 0.000872665, 0.0, 0.0, 0.0, 0.000872665)",-0.132109669838,0.9933469221,-0.473040915728,"(0.003, 0.0, 0.0, 0.0, 0.003, 0.0, 0.0, 0.0, 0.003)"
2022/01/11/19:04:54.578915,12039,1641924294,575768032,imu_iphone,-0.00573911094391,0.0491688268169,-0.280151670031,0.958678533636,"(0.00872665, 0.0, 0.0, 0.0, 0.00872665, 0.0, 0.0, 0.0, 0.00872665)",0.499041199684,-0.202381253242,1.63791286945,"(0.000872665, 0.0, 0.0, 0.0, 0.000872665, 0.0, 0.0, 0.0, 0.000872665)",-0.0280469373241,1.14865335524,-0.437269404531,"(0.003, 0.0, 0.0, 0.0, 0.003, 0.0, 0.0, 0.0, 0.003)"
2022/01/11/19:04:54.605885,12040,1641924294,605520643,imu_iphone,-0.0106707282361,0.0564061871304,-0.256199516463,0.964917760939,"(0.00872665, 0.0, 0.0, 0.0, 0.00872665, 0.0, 0.0, 0.0, 0.00872665)",0.47249814868,-0.224669769406,1.57634854317,"(0.000872665, 0.0, 0.0, 0.0, 0.000872665, 0.0, 0.0, 0.0, 0.000872665)",0.0917167203873,1.28546226785,-0.419869260192,"(0.003, 0.0, 0.0, 0.0, 0.003, 0.0, 0.0, 0.0, 0.003)"
2022/01/11/19:04:54.635512,12041,1641924294,635178608,imu_iphone,-0.0165244052571,0.0628726858212,-0.23294182654,0.97031545121,"(0.00872665, 0.0, 0.0, 0.0, 0.00872665, 0.0, 0.0, 0.0, 0.00872665)",0.439064323902,-0.238953322172,1.50211596489,"(0.000872665, 0.0, 0.0, 0.0, 0.000872665, 0.0, 0.0, 0.0, 0.000872665)",0.222771095708,1.43038009912,-0.380495864153,"(0.003, 0.0, 0.0, 0.0, 0.003, 0.0, 0.0, 0.0, 0.003)"
2022/01/11/19:04:54.665309,12042,1641924294,665008143,imu_iphone,-0.0230253623669,0.0684788193765,-0.21067051167,0.974883797946,"(0.00872665, 0.0, 0.0, 0.0, 0.00872665, 0.0, 0.0, 0.0, 0.00872665)",0.402382344007,-0.246233910322,1.41142547131,"(0.000872665, 0.0, 0.0, 0.0, 0.000872665, 0.0, 0.0, 0.0, 0.000872665)",0.382018113658,1.56969907522,-0.351787789464,"(0.003, 0.0, 0.0, 0.0, 0.003, 0.0, 0.0, 0.0, 0.003)"
2022/01/11/19:04:54.695325,12043,1641924294,694887199,imu_iphone,-0.0299382082098,0.0731299477681,-0.189549399475,0.978686231428,"(0.00872665, 0.0, 0.0, 0.0, 0.00872665, 0.0, 0.0, 0.0, 0.00872665)",0.357307076454,-0.249138519168,1.32092761993,"(0.000872665, 0.0, 0.0, 0.0, 0.000872665, 0.0, 0.0, 0.0, 0.000872665)",0.548056380227,1.71022155449,-0.317557019591,"(0.003, 0.0, 0.0, 0.0, 0.003, 0.0, 0.0, 0.0, 0.003)"
2022/01/11/19:04:54.724897,12044,1641924294,724618712,imu_iphone,-0.0370213735038,0.0767669564047,-0.169770223481,0.981791384932,"(0.00872665, 0.0, 0.0, 0.0, 0.00872665, 0.0, 0.0, 0.0, 0.00872665)",0.310984760523,-0.245802924037,1.2213203907,"(0.000872665, 0.0, 0.0, 0.0, 0.000872665, 0.0, 0.0, 0.0, 0.000872665)",0.720202428997,1.83458189115,-0.278432130218,"(0.003, 0.0, 0.0, 0.0, 0.003, 0.0, 0.0, 0.0, 0.003)"
2022/01/11/19:04:54.757445,12045,1641924294,754921646,imu_iphone,-0.0440344247704,0.0793717071029,-0.151448206953,0.984288850977,"(0.00872665, 0.0, 0.0, 0.0, 0.00872665, 0.0, 0.0, 0.0, 0.00872665)",0.259074270725,-0.233169615269,1.1236833334,"(0.000872665, 0.0, 0.0, 0.0, 0.000872665, 0.0, 0.0, 0.0, 0.000872665)",0.895823478028,1.95221778363,-0.227509898543,"(0.003, 0.0, 0.0, 0.0, 0.003, 0.0, 0.0, 0.0, 0.003)"
2022/01/11/19:04:54.793316,12046,1641924294,792951589,imu_iphone,-0.0507249113064,0.0808995424695,-0.134690969557,0.986276122656,"(0.00872665, 0.0, 0.0, 0.0, 0.00872665, 0.0, 0.0, 0.0, 0.00872665)",0.197907969356,-0.212622493505,1.02006411552,"(0.000872665, 0.0, 0.0, 0.0, 0.000872665, 0.0, 0.0, 0.0, 0.000872665)",1.05868626796,2.04813594773,-0.185775981545,"(0.003, 0.0, 0.0, 0.0, 0.003, 0.0, 0.0, 0.0, 0.003)"
2022/01/11/19:04:54.814233,12047,1641924294,813905727,imu_iphone,-0.0568694541919,0.0813536471773,-0.1196589763,0.987840664612,"(0.00872665, 0.0, 0.0, 0.0, 0.00872665, 0.0, 0.0, 0.0, 0.00872665)",0.133879825473,-0.180671900511,0.916324675083,"(0.000872665, 0.0, 0.0, 0.0, 0.000872665, 0.0, 0.0, 0.0, 0.000872665)",1.25668198004,2.12132759258,-0.138370850086,"(0.003, 0.0, 0.0, 0.0, 0.003, 0.0, 0.0, 0.0, 0.003)"
2022/01/11/19:04:54.844003,12048,1641924294,843699555,imu_iphone,-0.0621791378548,0.0807802851765,-0.106495246145,0.98907384097,"(0.00872665, 0.0, 0.0, 0.0, 0.00872665, 0.0, 0.0, 0.0, 0.00872665)",0.0660090595484,-0.1377800107,0.795197844505,"(0.000872665, 0.0, 0.0, 0.0, 0.000872665, 0.0, 0.0, 0.0, 0.000872665)",1.39457028866,2.16066941366,-0.121556012034,"(0.003, 0.0, 0.0, 0.0, 0.003, 0.0, 0.0, 0.0, 0.003)"
2022/01/11/19:04:54.873992,12049,1641924294,873641140,imu_iphone,-0.0664824687712,0.0792846066527,-0.0954139701912,0.990045557935,"(0.00872665, 0.0, 0.0, 0.0, 0.00872665, 0.0, 0.0, 0.0, 0.00872665)",-0.00537215918303,-0.0948768928647,0.672280430794,"(0.000872665, 0.0, 0.0, 0.0, 0.000872665, 0.0, 0.0, 0.0, 0.000872665)",1.49431048527,2.16241977766,-0.085359992981,"(0.003, 0.0, 0.0, 0.0, 0.003, 0.0, 0.0, 0.0, 0.003)"
2022/01/11/19:04:54.903622,12050,1641924294,903394374,imu_iphone,-0.069628811103,0.0769706935989,-0.0865697721059,0.990824412067,"(0.00872665, 0.0, 0.0, 0.0, 0.00872665, 0.0, 0.0, 0.0, 0.00872665)",-0.0721506029367,-0.0369924642146,0.535529851913,"(0.000872665, 0.0, 0.0, 0.0, 0.000872665, 0.0, 0.0, 0.0, 0.000872665)",1.55736466616,2.11181811959,-0.082627004385,"(0.003, 0.0, 0.0, 0.0, 0.003, 0.0, 0.0, 0.0, 0.003)"
2022/01/11/19:04:54.933670,12051,1641924294,933378189,imu_iphone,-0.0714841251674,0.0740318670486,-0.080137796669,0.991457127694,"(0.00872665, 0.0, 0.0, 0.0, 0.00872665, 0.0, 0.0, 0.0, 0.00872665)",-0.135083481669,0.0133121162653,0.381839960814,"(0.000872665, 0.0, 0.0, 0.0, 0.000872665, 0.0, 0.0, 0.0, 0.000872665)",1.58732009813,2.01896462739,-0.0880380177498,"(0.003, 0.0, 0.0, 0.0, 0.003, 0.0, 0.0, 0.0, 0.003)"
2022/01/11/19:04:54.963207,12052,1641924294,962937381,imu_iphone,-0.0720374206084,0.0705857013581,-0.0763255765077,0.991969089824,"(0.00872665, 0.0, 0.0, 0.0, 0.00872665, 0.0, 0.0, 0.0, 0.00872665)",-0.198927521706,0.0639131590724,0.222178503871,"(0.000872665, 0.0, 0.0, 0.0, 0.000872665, 0.0, 0.0, 0.0, 0.000872665)",1.54889000416,1.91045258403,-0.126520882845,"(0.003, 0.0, 0.0, 0.0, 0.003, 0.0, 0.0, 0.0, 0.003)"
2022/01/11/19:04:54.992970,12053,1641924294,992662268,imu_iphone,-0.0713282202623,0.0667622887251,-0.0752015647496,0.992370800889,"(0.00872665, 0.0, 0.0, 0.0, 0.00872665, 0.0, 0.0, 0.0, 0.00872665)",-0.253693968058,0.111924141645,0.0520245619118,"(0.000872665, 0.0, 0.0, 0.0, 0.000872665, 0.0, 0.0, 0.0, 0.000872665)",1.48040156722,1.79878509074,-0.154638973475,"(0.003, 0.0, 0.0, 0.0, 0.003, 0.0, 0.0, 0.0, 0.003)"
2022/01/11/19:04:55.023276,12054,1641924295,22974688,imu_iphone,-0.0695252598511,0.0626460464529,-0.0767309167765,0.992650027712,"(0.00872665, 0.0, 0.0, 0.0, 0.00872665, 0.0, 0.0, 0.0, 0.00872665)",-0.306125104427,0.149729669094,-0.110057547688,"(0.000872665, 0.0, 0.0, 0.0, 0.000872665, 0.0, 0.0, 0.0, 0.000872665)",1.36170045823,1.66267594367,-0.215995561481,"(0.003, 0.0, 0.0, 0.0, 0.003, 0.0, 0.0, 0.0, 0.003)"
2022/01/11/19:04:55.052606,12055,1641924295,52324640,imu_iphone,-0.0668349420176,0.058231851697,-0.0807350581762,0.9927859751,"(0.00872665, 0.0, 0.0, 0.0, 0.00872665, 0.0, 0.0, 0.0, 0.00872665)",-0.354596376419,0.18728557229,-0.264650851488,"(0.000872665, 0.0, 0.0, 0.0, 0.000872665, 0.0, 0.0, 0.0, 0.000872665)",1.26235582575,1.54183124542,-0.241888786554,"(0.003, 0.0, 0.0, 0.0, 0.003, 0.0, 0.0, 0.0, 0.003)"
2022/01/11/19:04:55.082613,12056,1641924295,82281614,imu_iphone,-0.0634016227748,0.0535036842702,-0.0871118474923,0.992738191078,"(0.00872665, 0.0, 0.0, 0.0, 0.00872665, 0.0, 0.0, 0.0, 0.00872665)",-0.398429423571,0.213572770357,-0.415850609541,"(0.000872665, 0.0, 0.0, 0.0, 0.000872665, 0.0, 0.0, 0.0, 0.000872665)",1.16244196683,1.36261569366,-0.298792135119,"(0.003, 0.0, 0.0, 0.0, 0.003, 0.0, 0.0, 0.0, 0.003)"
2022/01/11/19:04:55.112496,12057,1641924295,112161164,imu_iphone,-0.059449189547,0.0484658661436,-0.0956797588966,0.992452637368,"(0.00872665, 0.0, 0.0, 0.0, 0.00872665, 0.0, 0.0, 0.0, 0.00872665)",-0.437393844128,0.23831307888,-0.556089937687,"(0.000872665, 0.0, 0.0, 0.0, 0.000872665, 0.0, 0.0, 0.0, 0.000872665)",1.05891599044,1.19826208301,-0.34160661757,"(0.003, 0.0, 0.0, 0.0, 0.003, 0.0, 0.0, 0.0, 0.003)"
2022/01/11/19:04:55.142091,12058,1641924295,141784452,imu_iphone,-0.0551147571444,0.0430983008743,-0.106310850359,0.991868390011,"(0.00872665, 0.0, 0.0, 0.0, 0.00872665, 0.0, 0.0, 0.0, 0.00872665)",-0.465761423111,0.25558719039,-0.694532632828,"(0.000872665, 0.0, 0.0, 0.0, 0.000872665, 0.0, 0.0, 0.0, 0.000872665)",0.947949285954,1.00935937598,-0.376258971691,"(0.003, 0.0, 0.0, 0.0, 0.003, 0.0, 0.0, 0.0, 0.003)"
2022/01/11/19:04:55.174155,12059,1641924295,173942923,imu_iphone,-0.0506258691246,0.0374259829072,-0.118857838848,0.990913281434,"(0.00872665, 0.0, 0.0, 0.0, 0.00872665, 0.0, 0.0, 0.0, 0.00872665)",-0.493060618639,0.264678031206,-0.823242783546,"(0.000872665, 0.0, 0.0, 0.0, 0.000872665, 0.0, 0.0, 0.0, 0.000872665)",0.840710473806,0.822124367952,-0.430284320712,"(0.003, 0.0, 0.0, 0.0, 0.003, 0.0, 0.0, 0.0, 0.003)"
2022/01/11/19:04:55.201864,12060,1641924295,201512546,imu_iphone,-0.0461159106059,0.0314589703289,-0.133146837036,0.989522903101,"(0.00872665, 0.0, 0.0, 0.0, 0.00872665, 0.0, 0.0, 0.0, 0.00872665)",-0.512677788734,0.281229645014,-0.945241510868,"(0.000872665, 0.0, 0.0, 0.0, 0.000872665, 0.0, 0.0, 0.0, 0.000872665)",0.714193245471,0.62515740037,-0.436861268878,"(0.003, 0.0, 0.0, 0.0, 0.003, 0.0, 0.0, 0.0, 0.003)"
2022/01/11/19:04:55.231731,12061,1641924295,231301366,imu_iphone,-0.0417889140725,0.025224800332,-0.149059446671,0.987622740457,"(0.00872665, 0.0, 0.0, 0.0, 0.00872665, 0.0, 0.0, 0.0, 0.00872665)",-0.529049217701,0.283204376698,-1.06534159184,"(0.000872665, 0.0, 0.0, 0.0, 0.000872665, 0.0, 0.0, 0.0, 0.000872665)",0.597765314654,0.444409512654,-0.475155853629,"(0.003, 0.0, 0.0, 0.0, 0.003, 0.0, 0.0, 0.0, 0.003)"
2022/01/11/19:04:55.261637,12062,1641924295,261308737,imu_iphone,-0.0377743973912,0.018746000216,-0.166516963644,0.985136428723,"(0.00872665, 0.0, 0.0, 0.0, 0.00872665, 0.0, 0.0, 0.0, 0.00872665)",-0.538907468319,0.280600219965,-1.17662882805,"(0.000872665, 0.0, 0.0, 0.0, 0.000872665, 0.0, 0.0, 0.0, 0.000872665)",0.485397982746,0.248797911387,-0.478418015242,"(0.003, 0.0, 0.0, 0.0, 0.003, 0.0, 0.0, 0.0, 0.003)"
2022/01/11/19:04:55.291385,12063,1641924295,291000327,imu_iphone,-0.0342471892492,0.012100877552,-0.185366047061,0.9819980282,"(0.00872665, 0.0, 0.0, 0.0, 0.00872665, 0.0, 0.0, 0.0, 0.00872665)",-0.542690038681,0.274612337351,-1.27399754524,"(0.000872665, 0.0, 0.0, 0.0, 0.000872665, 0.0, 0.0, 0.0, 0.000872665)",0.364049400687,0.0855401785858,-0.497553613186,"(0.003, 0.0, 0.0, 0.0, 0.003, 0.0, 0.0, 0.0, 0.003)"
2022/01/11/19:04:55.321420,12064,1641924295,321040436,imu_iphone,-0.0313718844864,0.00528924720585,-0.205364799466,0.978168251309,"(0.00872665, 0.0, 0.0, 0.0, 0.00872665, 0.0, 0.0, 0.0, 0.00872665)",-0.549720704556,0.265946686268,-1.35784196854,"(0.000872665, 0.0, 0.0, 0.0, 0.000872665, 0.0, 0.0, 0.0, 0.000872665)",0.287039304748,-0.0804304795526,-0.504101909995,"(0.003, 0.0, 0.0, 0.0, 0.003, 0.0, 0.0, 0.0, 0.003)"
2022/01/11/19:04:55.350693,12065,1641924295,350325770,imu_iphone,-0.0292451035202,-0.0016182657321,-0.226314659411,0.973613773563,"(0.00872665, 0.0, 0.0, 0.0, 0.00872665, 0.0, 0.0, 0.0, 0.00872665)",-0.546985864639,0.253950536251,-1.43404281139,"(0.000872665, 0.0, 0.0, 0.0, 0.000872665, 0.0, 0.0, 0.0, 0.000872665)",0.194455223009,-0.259114957955,-0.492542549372,"(0.003, 0.0, 0.0, 0.0, 0.003, 0.0, 0.0, 0.0, 0.003)"
2022/01/11/19:04:55.380860,12066,1641924295,380446476,imu_iphone,-0.0279783854077,-0.00852053593073,-0.248011785477,0.968315426234,"(0.00872665, 0.0, 0.0, 0.0, 0.00872665, 0.0, 0.0, 0.0, 0.00872665)",-0.546688556671,0.235363423824,-1.49239802361,"(0.000872665, 0.0, 0.0, 0.0, 0.000872665, 0.0, 0.0, 0.0, 0.000872665)",0.109722782448,-0.405495196134,-0.506863549948,"(0.003, 0.0, 0.0, 0.0, 0.003, 0.0, 0.0, 0.0, 0.003)"
2022/01/11/19:04:55.410212,12067,1641924295,409918731,imu_iphone,-0.027644708893,-0.0153385466933,-0.27016046886,0.962296118729,"(0.00872665, 0.0, 0.0, 0.0, 0.00872665, 0.0, 0.0, 0.0, 0.00872665)",-0.543390214443,0.215967521071,-1.52720367908,"(0.000872665, 0.0, 0.0, 0.0, 0.000872665, 0.0, 0.0, 0.0, 0.000872665)",0.0590793533251,-0.558423493579,-0.494721806645,"(0.003, 0.0, 0.0, 0.0, 0.003, 0.0, 0.0, 0.0, 0.003)"
2022/01/11/19:04:55.440469,12068,1641924295,440106030,imu_iphone,-0.0282856436991,-0.0220195049735,-0.292483116635,0.955598603099,"(0.00872665, 0.0, 0.0, 0.0, 0.00872665, 0.0, 0.0, 0.0, 0.00872665)",-0.540945589542,0.195327490568,-1.54242265224,"(0.000872665, 0.0, 0.0, 0.0, 0.000872665, 0.0, 0.0, 0.0, 0.000872665)",0.00504293113947,-0.720206375867,-0.505860752463,"(0.003, 0.0, 0.0, 0.0, 0.003, 0.0, 0.0, 0.0, 0.003)"
2022/01/11/19:04:55.469652,12069,1641924295,469372282,imu_iphone,-0.0298890798736,-0.0284268706699,-0.314733930283,0.948283243054,"(0.00872665, 0.0, 0.0, 0.0, 0.00872665, 0.0, 0.0, 0.0, 0.00872665)",-0.53401273489,0.167962357402,-1.54136407375,"(0.000872665, 0.0, 0.0, 0.0, 0.000872665, 0.0, 0.0, 0.0, 0.000872665)",-0.0366252777725,-0.8766191753,-0.485591964126,"(0.003, 0.0, 0.0, 0.0, 0.003, 0.0, 0.0, 0.0, 0.003)"
2022/01/11/19:04:55.499878,12070,1641924295,499566391,imu_iphone,-0.0324190870846,-0.0344861026549,-0.336632466255,0.94044579545,"(0.00872665, 0.0, 0.0, 0.0, 0.00872665, 0.0, 0.0, 0.0, 0.00872665)",-0.524610459805,0.144424259663,-1.51710355282,"(0.000872665, 0.0, 0.0, 0.0, 0.000872665, 0.0, 0.0, 0.0, 0.000872665)",-0.0559029265121,-1.03351071551,-0.484038943648,"(0.003, 0.0, 0.0, 0.0, 0.003, 0.0, 0.0, 0.0, 0.003)"
2022/01/11/19:04:55.529543,12071,1641924295,529165498,imu_iphone,-0.0357838518369,-0.0400856111944,-0.357896262015,0.932213991184,"(0.00872665, 0.0, 0.0, 0.0, 0.00872665, 0.0, 0.0, 0.0, 0.00872665)",-0.513347148895,0.118661910295,-1.47505962849,"(0.000872665, 0.0, 0.0, 0.0, 0.000872665, 0.0, 0.0, 0.0, 0.000872665)",-0.0411792355031,-1.1832256756,-0.460060681701,"(0.003, 0.0, 0.0, 0.0, 0.003, 0.0, 0.0, 0.0, 0.003)"
2022/01/11/19:04:55.560137,12072,1641924295,559167977,imu_iphone,-0.039848490219,-0.0451843839521,-0.378276431616,0.923730161117,"(0.00872665, 0.0, 0.0, 0.0, 0.00872665, 0.0, 0.0, 0.0, 0.00872665)",-0.497897803783,0.0992385149002,-1.41448330879,"(0.000872665, 0.0, 0.0, 0.0, 0.000872665, 0.0, 0.0, 0.0, 0.000872665)",-0.0216521299258,-1.3405303216,-0.449025816321,"(0.003, 0.0, 0.0, 0.0, 0.003, 0.0, 0.0, 0.0, 0.003)"
2022/01/11/19:04:55.589375,12073,1641924295,588720337,imu_iphone,-0.0444777606403,-0.0497363740453,-0.3975704499,0.915142480312,"(0.00872665, 0.0, 0.0, 0.0, 0.00872665, 0.0, 0.0, 0.0, 0.00872665)",-0.478294402361,0.0744523108006,-1.33681643009,"(0.000872665, 0.0, 0.0, 0.0, 0.000872665, 0.0, 0.0, 0.0, 0.000872665)",0.0180082913116,-1.50431331709,-0.42130299747,"(0.003, 0.0, 0.0, 0.0, 0.003, 0.0, 0.0, 0.0, 0.003)"
2022/01/11/19:04:55.618711,12074,1641924295,618326697,imu_iphone,-0.0494738038617,-0.0537219962758,-0.415611000308,0.906605639885,"(0.00872665, 0.0, 0.0, 0.0, 0.00872665, 0.0, 0.0, 0.0, 0.00872665)",-0.455447286367,0.0546929500997,-1.25096595287,"(0.000872665, 0.0, 0.0, 0.0, 0.000872665, 0.0, 0.0, 0.0, 0.000872665)",0.0768645733595,-1.66781725422,-0.399084747434,"(0.003, 0.0, 0.0, 0.0, 0.003, 0.0, 0.0, 0.0, 0.003)"
2022/01/11/19:04:55.649636,12075,1641924295,649223173,imu_iphone,-0.0546350044677,-0.0571320168132,-0.43231573189,0.898250553522,"(0.00872665, 0.0, 0.0, 0.0, 0.00872665, 0.0, 0.0, 0.0, 0.00872665)",-0.428508907557,0.0440342947841,-1.15724110603,"(0.000872665, 0.0, 0.0, 0.0, 0.000872665, 0.0, 0.0, 0.0, 0.000872665)",0.133240941614,-1.82924586833,-0.368245362639,"(0.003, 0.0, 0.0, 0.0, 0.003, 0.0, 0.0, 0.0, 0.003)"
2022/01/11/19:04:55.680941,12076,1641924295,680497639,imu_iphone,-0.059761146814,-0.0599841080925,-0.447571237972,0.890230587571,"(0.00872665, 0.0, 0.0, 0.0, 0.00872665, 0.0, 0.0, 0.0, 0.00872665)",-0.394732654095,0.0369424596429,-1.05815494061,"(0.000872665, 0.0, 0.0, 0.0, 0.000872665, 0.0, 0.0, 0.0, 0.000872665)",0.195085406676,-1.99490713567,-0.346936354637,"(0.003, 0.0, 0.0, 0.0, 0.003, 0.0, 0.0, 0.0, 0.003)"
2022/01/11/19:04:55.708783,12077,1641924295,707951672,imu_iphone,-0.0646527828328,-0.0622991761494,-0.461373493905,0.882651306828,"(0.00872665, 0.0, 0.0, 0.0, 0.00872665, 0.0, 0.0, 0.0, 0.00872665)",-0.352853089571,0.0344926342368,-0.95771831274,"(0.000872665, 0.0, 0.0, 0.0, 0.000872665, 0.0, 0.0, 0.0, 0.000872665)",0.281311079934,-2.17096606806,-0.331799082756,"(0.003, 0.0, 0.0, 0.0, 0.003, 0.0, 0.0, 0.0, 0.003)"
2022/01/11/19:04:55.738087,12078,1641924295,737711883,imu_iphone,-0.0691134856619,-0.0640864859375,-0.473702672562,0.875626647851,"(0.00872665, 0.0, 0.0, 0.0, 0.00872665, 0.0, 0.0, 0.0, 0.00872665)",-0.304213434458,0.0363348871469,-0.854671657085,"(0.000872665, 0.0, 0.0, 0.0, 0.000872665, 0.0, 0.0, 0.0, 0.000872665)",0.343249063902,-2.31005831838,-0.286864984632,"(0.003, 0.0, 0.0, 0.0, 0.003, 0.0, 0.0, 0.0, 0.003)"
2022/01/11/19:04:55.767564,12079,1641924295,767305205,imu_iphone,-0.0729626354963,-0.0653784769131,-0.4845659302,0.869251383587,"(0.00872665, 0.0, 0.0, 0.0, 0.00872665, 0.0, 0.0, 0.0, 0.00872665)",-0.247986465693,0.0450617596507,-0.751548171043,"(0.000872665, 0.0, 0.0, 0.0, 0.000872665, 0.0, 0.0, 0.0, 0.000872665)",0.403197825104,-2.43662466332,-0.256119740009,"(0.003, 0.0, 0.0, 0.0, 0.003, 0.0, 0.0, 0.0, 0.003)"
2022/01/11/19:04:55.797532,12080,1641924295,797169490,imu_iphone,-0.0760565036742,-0.0662321340075,-0.493993802494,0.863596454237,"(0.00872665, 0.0, 0.0, 0.0, 0.00872665, 0.0, 0.0, 0.0, 0.00872665)",-0.194564983249,0.0559730753303,-0.649860262871,"(0.000872665, 0.0, 0.0, 0.0, 0.000872665, 0.0, 0.0, 0.0, 0.000872665)",0.438383956924,-2.54180452466,-0.224708497524,"(0.003, 0.0, 0.0, 0.0, 0.003, 0.0, 0.0, 0.0, 0.003)"
2022/01/11/19:04:55.827242,12081,1641924295,826847797,imu_iphone,-0.0782739124802,-0.0666631094139,-0.501953999584,0.858761554083,"(0.00872665, 0.0, 0.0, 0.0, 0.00872665, 0.0, 0.0, 0.0, 0.00872665)",-0.133662506938,0.0705673322082,-0.545827627182,"(0.000872665, 0.0, 0.0, 0.0, 0.000872665, 0.0, 0.0, 0.0, 0.000872665)",0.457683861628,-2.62844096482,-0.204105248451,"(0.003, 0.0, 0.0, 0.0, 0.003, 0.0, 0.0, 0.0, 0.003)"
2022/01/11/19:04:55.857369,12082,1641924295,856955577,imu_iphone,-0.0794970399519,-0.0667024039327,-0.508441209121,0.854820768826,"(0.00872665, 0.0, 0.0, 0.0, 0.00872665, 0.0, 0.0, 0.0, 0.00872665)",-0.0608679540455,0.0831728577614,-0.440747320652,"(0.000872665, 0.0, 0.0, 0.0, 0.000872665, 0.0, 0.0, 0.0, 0.000872665)",0.454437195137,-2.68592728078,-0.201856994033,"(0.003, 0.0, 0.0, 0.0, 0.003, 0.0, 0.0, 0.0, 0.003)"
2022/01/11/19:04:55.886753,12083,1641924295,886423862,imu_iphone,-0.0797002902567,-0.0663550836122,-0.513454148298,0.851827273693,"(0.00872665, 0.0, 0.0, 0.0, 0.00872665, 0.0, 0.0, 0.0, 0.00872665)",0.00658135814592,0.101061299443,-0.333121597767,"(0.000872665, 0.0, 0.0, 0.0, 0.000872665, 0.0, 0.0, 0.0, 0.000872665)",0.423758243322,-2.68202952683,-0.185867782831,"(0.003, 0.0, 0.0, 0.0, 0.003, 0.0, 0.0, 0.0, 0.003)"
2022/01/11/19:04:55.916904,12084,1641924295,916522050,imu_iphone,-0.0788810364454,-0.0656684054621,-0.516972209949,0.849826556865,"(0.00872665, 0.0, 0.0, 0.0, 0.00872665, 0.0, 0.0, 0.0, 0.00872665)",0.0757585465908,0.111671820283,-0.221982866526,"(0.000872665, 0.0, 0.0, 0.0, 0.000872665, 0.0, 0.0, 0.0, 0.000872665)",0.393637335151,-2.65992822111,-0.194263799787,"(0.003, 0.0, 0.0, 0.0, 0.003, 0.0, 0.0, 0.0, 0.003)"
2022/01/11/19:04:55.946443,12085,1641924295,946135427,imu_iphone,-0.0770182517106,-0.0646366035704,-0.518979807233,0.848852318172,"(0.00872665, 0.0, 0.0, 0.0, 0.00872665, 0.0, 0.0, 0.0, 0.00872665)",0.142541930079,0.123523630202,-0.112460970879,"(0.000872665, 0.0, 0.0, 0.0, 0.000872665, 0.0, 0.0, 0.0, 0.000872665)",0.341482656598,-2.61320399791,-0.195208709836,"(0.003, 0.0, 0.0, 0.0, 0.003, 0.0, 0.0, 0.0, 0.003)"
2022/01/11/19:04:55.976427,12086,1641924295,976019803,imu_iphone,-0.0741741458035,-0.063221915277,-0.519503740751,0.848891659088,"(0.00872665, 0.0, 0.0, 0.0, 0.00872665, 0.0, 0.0, 0.0, 0.00872665)",0.211492970586,0.134170860052,-4.8840418458e-05,"(0.000872665, 0.0, 0.0, 0.0, 0.000872665, 0.0, 0.0, 0.0, 0.000872665)",0.275894475169,-2.53559828997,-0.237859470248,"(0.003, 0.0, 0.0, 0.0, 0.003, 0.0, 0.0, 0.0, 0.003)"
2022/01/11/19:04:56.006384,12087,1641924296,5834709,imu_iphone,-0.0704213187249,-0.0614192302315,-0.518537115614,0.849933983176,"(0.00872665, 0.0, 0.0, 0.0, 0.00872665, 0.0, 0.0, 0.0, 0.00872665)",0.272869229317,0.135259434581,0.110860325396,"(0.000872665, 0.0, 0.0, 0.0, 0.000872665, 0.0, 0.0, 0.0, 0.000872665)",0.216406657286,-2.43431194335,-0.256185228825,"(0.003, 0.0, 0.0, 0.0, 0.003, 0.0, 0.0, 0.0, 0.003)"
2022/01/11/19:04:56.037490,12088,1641924296,37182483,imu_iphone,-0.0658728063352,-0.0591492251895,-0.516165777202,0.851900835186,"(0.00872665, 0.0, 0.0, 0.0, 0.00872665, 0.0, 0.0, 0.0, 0.00872665)",0.331815540791,0.137661486864,0.217191085219,"(0.000872665, 0.0, 0.0, 0.0, 0.000872665, 0.0, 0.0, 0.0, 0.000872665)",0.139007575326,-2.29641077086,-0.282211770415,"(0.003, 0.0, 0.0, 0.0, 0.003, 0.0, 0.0, 0.0, 0.003)"
2022/01/11/19:04:56.073188,12089,1641924296,72795806,imu_iphone,-0.0606311718581,-0.0564050547725,-0.512397630221,0.854746160763,"(0.00872665, 0.0, 0.0, 0.0, 0.00872665, 0.0, 0.0, 0.0, 0.00872665)",0.387264668941,0.134801387787,0.326277941465,"(0.000872665, 0.0, 0.0, 0.0, 0.000872665, 0.0, 0.0, 0.0, 0.000872665)",0.0609963995218,-2.12547429174,-0.31103035748,"(0.003, 0.0, 0.0, 0.0, 0.003, 0.0, 0.0, 0.0, 0.003)"
2022/01/11/19:04:56.096270,12090,1641924296,95865336,imu_iphone,-0.0548291582619,-0.053155650083,-0.507282979347,0.858389316763,"(0.00872665, 0.0, 0.0, 0.0, 0.00872665, 0.0, 0.0, 0.0, 0.00872665)",0.437973201275,0.132752522826,0.425326168537,"(0.000872665, 0.0, 0.0, 0.0, 0.000872665, 0.0, 0.0, 0.0, 0.000872665)",0.0113044220209,-1.93969787166,-0.354519608617,"(0.003, 0.0, 0.0, 0.0, 0.003, 0.0, 0.0, 0.0, 0.003)"
2022/01/11/19:04:56.125294,12091,1641924296,124971348,imu_iphone,-0.0486017222204,-0.0493781158576,-0.500869082297,0.862745522545,"(0.00872665, 0.0, 0.0, 0.0, 0.00872665, 0.0, 0.0, 0.0, 0.00872665)",0.480102598667,0.124438211322,0.526807248592,"(0.000872665, 0.0, 0.0, 0.0, 0.000872665, 0.0, 0.0, 0.0, 0.000872665)",-0.0477060803398,-1.73346496761,-0.384578390121,"(0.003, 0.0, 0.0, 0.0, 0.003, 0.0, 0.0, 0.0, 0.003)"
2022/01/11/19:04:56.155123,12092,1641924296,154754349,imu_iphone,-0.0421109759142,-0.045076079648,-0.493151670966,0.867753560739,"(0.00872665, 0.0, 0.0, 0.0, 0.00872665, 0.0, 0.0, 0.0, 0.00872665)",0.514369666576,0.11539876461,0.628304421902,"(0.000872665, 0.0, 0.0, 0.0, 0.000872665, 0.0, 0.0, 0.0, 0.000872665)",-0.108527410571,-1.50629654646,-0.406517727971,"(0.003, 0.0, 0.0, 0.0, 0.003, 0.0, 0.0, 0.0, 0.003)"
2022/01/11/19:04:56.183968,12093,1641924296,183677286,imu_iphone,-0.0355421533434,-0.0402533055236,-0.484155294358,0.873332741672,"(0.00872665, 0.0, 0.0, 0.0, 0.00872665, 0.0, 0.0, 0.0, 0.00872665)",0.539426505566,0.105105601251,0.727746188641,"(0.000872665, 0.0, 0.0, 0.0, 0.000872665, 0.0, 0.0, 0.0, 0.000872665)",-0.18979833601,-1.25143571198,-0.429300234318,"(0.003, 0.0, 0.0, 0.0, 0.003, 0.0, 0.0, 0.0, 0.003)"
2022/01/11/19:04:56.213979,12094,1641924296,213648403,imu_iphone,-0.0290845082554,-0.0349176067367,-0.473851587152,0.879431364845,"(0.00872665, 0.0, 0.0, 0.0, 0.00872665, 0.0, 0.0, 0.0, 0.00872665)",0.553950548172,0.0854259729385,0.826583743095,"(0.000872665, 0.0, 0.0, 0.0, 0.000872665, 0.0, 0.0, 0.0, 0.000872665)",-0.258684803881,-0.997871863022,-0.43150521934,"(0.003, 0.0, 0.0, 0.0, 0.003, 0.0, 0.0, 0.0, 0.003)"
2022/01/11/19:04:56.244658,12095,1641924296,244169926,imu_iphone,-0.0229344868545,-0.0291088545246,-0.46223678571,0.88598184961,"(0.00872665, 0.0, 0.0, 0.0, 0.00872665, 0.0, 0.0, 0.0, 0.00872665)",0.561662316322,0.064437687397,0.918076515198,"(0.000872665, 0.0, 0.0, 0.0, 0.000872665, 0.0, 0.0, 0.0, 0.000872665)",-0.331901445575,-0.752163821384,-0.460443089604,"(0.003, 0.0, 0.0, 0.0, 0.003, 0.0, 0.0, 0.0, 0.003)"
2022/01/11/19:04:56.274323,12096,1641924296,273990204,imu_iphone,-0.0173099493474,-0.0228568292407,-0.449360375536,0.8928903538,"(0.00872665, 0.0, 0.0, 0.0, 0.00872665, 0.0, 0.0, 0.0, 0.00872665)",0.560344338417,0.0388850718737,1.01618242264,"(0.000872665, 0.0, 0.0, 0.0, 0.000872665, 0.0, 0.0, 0.0, 0.000872665)",-0.383413113132,-0.493154570125,-0.415348777771,"(0.003, 0.0, 0.0, 0.0, 0.003, 0.0, 0.0, 0.0, 0.003)"
2022/01/11/19:04:56.304500,12097,1641924296,303901211,imu_iphone,-0.012389452778,-0.0162729908755,-0.435091834389,0.900153757353,"(0.00872665, 0.0, 0.0, 0.0, 0.00872665, 0.0, 0.0, 0.0, 0.00872665)",0.551289439201,0.00932406447828,1.11299300194,"(0.000872665, 0.0, 0.0, 0.0, 0.000872665, 0.0, 0.0, 0.0, 0.000872665)",-0.396413958594,-0.2750559479,-0.429431211948,"(0.003, 0.0, 0.0, 0.0, 0.003, 0.0, 0.0, 0.0, 0.003)"
2022/01/11/19:04:56.333932,12098,1641924296,333600626,imu_iphone,-0.0082881669511,-0.00941087300001,-0.419479958417,0.907677974969,"(0.00872665, 0.0, 0.0, 0.0, 0.00872665, 0.0, 0.0, 0.0, 0.00872665)",0.542559027672,-0.0183759387583,1.19457733631,"(0.000872665, 0.0, 0.0, 0.0, 0.000872665, 0.0, 0.0, 0.0, 0.000872665)",-0.403916886449,-0.0867183377221,-0.425357456803,"(0.003, 0.0, 0.0, 0.0, 0.003, 0.0, 0.0, 0.0, 0.003)"
2022/01/11/19:04:56.363765,12099,1641924296,363400874,imu_iphone,-0.00513080095986,-0.00233681609238,-0.402695364378,0.915316698023,"(0.00872665, 0.0, 0.0, 0.0, 0.00872665, 0.0, 0.0, 0.0, 0.00872665)",0.525369167328,-0.0447862111032,1.26618289948,"(0.000872665, 0.0, 0.0, 0.0, 0.000872665, 0.0, 0.0, 0.0, 0.000872665)",-0.375088505298,0.100415842384,-0.410471030474,"(0.003, 0.0, 0.0, 0.0, 0.003, 0.0, 0.0, 0.0, 0.003)"
2022/01/11/19:04:56.393769,12100,1641924296,393334003,imu_iphone,-0.00297949911032,0.00481853916578,-0.384837762624,0.922966847034,"(0.00872665, 0.0, 0.0, 0.0, 0.00872665, 0.0, 0.0, 0.0, 0.00872665)",0.505832493305,-0.0722942352295,1.32408905029,"(0.000872665, 0.0, 0.0, 0.0, 0.000872665, 0.0, 0.0, 0.0, 0.000872665)",-0.341215950474,0.245584098939,-0.400298629403,"(0.003, 0.0, 0.0, 0.0, 0.003, 0.0, 0.0, 0.0, 0.003)"
2022/01/11/19:04:56.423513,12101,1641924296,423132796,imu_iphone,-0.00183297564951,0.0119840561049,-0.366087806896,0.930501338119,"(0.00872665, 0.0, 0.0, 0.0, 0.00872665, 0.0, 0.0, 0.0, 0.00872665)",0.486136376858,-0.0937683284283,1.37009489536,"(0.000872665, 0.0, 0.0, 0.0, 0.000872665, 0.0, 0.0, 0.0, 0.000872665)",-0.301983033791,0.413837418705,-0.378152884841,"(0.003, 0.0, 0.0, 0.0, 0.003, 0.0, 0.0, 0.0, 0.003)"
2022/01/11/19:04:56.453200,12102,1641924296,452760352,imu_iphone,-0.0017221694929,0.0190653928726,-0.346609403876,0.937814195921,"(0.00872665, 0.0, 0.0, 0.0, 0.00872665, 0.0, 0.0, 0.0, 0.00872665)",0.466369330883,-0.11571957171,1.39325070381,"(0.000872665, 0.0, 0.0, 0.0, 0.000872665, 0.0, 0.0, 0.0, 0.000872665)",-0.255541962013,0.528595823273,-0.366891732216,"(0.003, 0.0, 0.0, 0.0, 0.003, 0.0, 0.0, 0.0, 0.003)"
2022/01/11/19:04:56.482842,12103,1641924296,482456472,imu_iphone,-0.00261923015598,0.0259850277814,-0.326749155553,0.944750182487,"(0.00872665, 0.0, 0.0, 0.0, 0.00872665, 0.0, 0.0, 0.0, 0.00872665)",0.447198957205,-0.136889263988,1.39301633835,"(0.000872665, 0.0, 0.0, 0.0, 0.000872665, 0.0, 0.0, 0.0, 0.000872665)",-0.197257482838,0.650480960459,-0.363204478025,"(0.003, 0.0, 0.0, 0.0, 0.003, 0.0, 0.0, 0.0, 0.003)"
2022/01/11/19:04:56.512620,12104,1641924296,512274765,imu_iphone,-0.00444305451471,0.0326581244079,-0.306802947629,0.951202216936,"(0.00872665, 0.0, 0.0, 0.0, 0.00872665, 0.0, 0.0, 0.0, 0.00872665)",0.432439208031,-0.155969560146,1.37134802341,"(0.000872665, 0.0, 0.0, 0.0, 0.000872665, 0.0, 0.0, 0.0, 0.000872665)",-0.139625205752,0.782873982713,-0.339701009989,"(0.003, 0.0, 0.0, 0.0, 0.003, 0.0, 0.0, 0.0, 0.003)"
2022/01/11/19:04:56.542263,12105,1641924296,541939614,imu_iphone,-0.00709254819685,0.0389964364279,-0.287035964998,0.957099435014,"(0.00872665, 0.0, 0.0, 0.0, 0.00872665, 0.0, 0.0, 0.0, 0.00872665)",0.406618565321,-0.171355083585,1.33624267578,"(0.000872665, 0.0, 0.0, 0.0, 0.000872665, 0.0, 0.0, 0.0, 0.000872665)",-0.055850593932,0.899213401303,-0.327356953025,"(0.003, 0.0, 0.0, 0.0, 0.003, 0.0, 0.0, 0.0, 0.003)"
2022/01/11/19:04:56.572282,12106,1641924296,571910022,imu_iphone,-0.0104896646952,0.0448808321696,-0.267712762799,0.962395736936,"(0.00872665, 0.0, 0.0, 0.0, 0.00872665, 0.0, 0.0, 0.0, 0.00872665)",0.385212123394,-0.185396403074,1.28312969208,"(0.000872665, 0.0, 0.0, 0.0, 0.000872665, 0.0, 0.0, 0.0, 0.000872665)",0.0260531464219,1.0138910412,-0.310669584274,"(0.003, 0.0, 0.0, 0.0, 0.003, 0.0, 0.0, 0.0, 0.003)"
2022/01/11/19:04:56.601892,12107,1641924296,601581081,imu_iphone,-0.0144752525766,0.0502829560063,-0.249058406065,0.967073938107,"(0.00872665, 0.0, 0.0, 0.0, 0.00872665, 0.0, 0.0, 0.0, 0.00872665)",0.359771639109,-0.19673922658,1.21521902084,"(0.000872665, 0.0, 0.0, 0.0, 0.000872665, 0.0, 0.0, 0.0, 0.000872665)",0.128027710319,1.15651647158,-0.289776898026,"(0.003, 0.0, 0.0, 0.0, 0.003, 0.0, 0.0, 0.0, 0.003)"
2022/01/11/19:04:56.631912,12108,1641924296,631516139,imu_iphone,-0.0189425452522,0.0550816734514,-0.231262630622,0.971146119236,"(0.00872665, 0.0, 0.0, 0.0, 0.00872665, 0.0, 0.0, 0.0, 0.00872665)",0.330165237188,-0.203541755676,1.14263916016,"(0.000872665, 0.0, 0.0, 0.0, 0.000872665, 0.0, 0.0, 0.0, 0.000872665)",0.239776443355,1.27552185506,-0.271939966679,"(0.003, 0.0, 0.0, 0.0, 0.003, 0.0, 0.0, 0.0, 0.003)"
2022/01/11/19:04:56.661584,12109,1641924296,661207663,imu_iphone,-0.023732965209,0.0591973182405,-0.214495717418,0.97464045221,"(0.00872665, 0.0, 0.0, 0.0, 0.00872665, 0.0, 0.0, 0.0, 0.00872665)",0.289357721806,-0.207076326013,1.06422686577,"(0.000872665, 0.0, 0.0, 0.0, 0.000872665, 0.0, 0.0, 0.0, 0.000872665)",0.360470466167,1.39945563734,-0.245960202813,"(0.003, 0.0, 0.0, 0.0, 0.003, 0.0, 0.0, 0.0, 0.003)"
2022/01/11/19:04:56.691552,12110,1641924296,691225397,imu_iphone,-0.0286939270056,0.0625670712161,-0.198859663615,0.977607720069,"(0.00872665, 0.0, 0.0, 0.0, 0.00872665, 0.0, 0.0, 0.0, 0.00872665)",0.250196427107,-0.201199218631,0.979119062424,"(0.000872665, 0.0, 0.0, 0.0, 0.000872665, 0.0, 0.0, 0.0, 0.000872665)",0.48896683082,1.50665454224,-0.208518726826,"(0.003, 0.0, 0.0, 0.0, 0.003, 0.0, 0.0, 0.0, 0.003)"
2022/01/11/19:04:56.721060,12111,1641924296,720753135,imu_iphone,-0.0336200375576,0.0651702815101,-0.184449185002,0.980102558733,"(0.00872665, 0.0, 0.0, 0.0, 0.00872665, 0.0, 0.0, 0.0, 0.00872665)",0.2071878016,-0.191043630242,0.896139204502,"(0.000872665, 0.0, 0.0, 0.0, 0.000872665, 0.0, 0.0, 0.0, 0.000872665)",0.622634180635,1.61472716734,-0.180649727583,"(0.003, 0.0, 0.0, 0.0, 0.003, 0.0, 0.0, 0.0, 0.003)"
2022/01/11/19:04:56.751320,12112,1641924296,750594196,imu_iphone,-0.0383793727641,0.0669224856484,-0.171327099608,0.982189100734,"(0.00872665, 0.0, 0.0, 0.0, 0.00872665, 0.0, 0.0, 0.0, 0.00872665)",0.152595713735,-0.174513310194,0.811476290226,"(0.000872665, 0.0, 0.0, 0.0, 0.000872665, 0.0, 0.0, 0.0, 0.000872665)",0.747947394177,1.6885754545,-0.150599716902,"(0.003, 0.0, 0.0, 0.0, 0.003, 0.0, 0.0, 0.0, 0.003)"
2022/01/11/19:04:56.781395,12113,1641924296,780980401,imu_iphone,-0.0428023177488,0.0678063181214,-0.159590501818,0.983921306075,"(0.00872665, 0.0, 0.0, 0.0, 0.00872665, 0.0, 0.0, 0.0, 0.00872665)",0.099340416491,-0.152860373259,0.721102833748,"(0.000872665, 0.0, 0.0, 0.0, 0.000872665, 0.0, 0.0, 0.0, 0.000872665)",0.896087552905,1.76097977176,-0.125552583933,"(0.003, 0.0, 0.0, 0.0, 0.003, 0.0, 0.0, 0.0, 0.003)"
2022/01/11/19:04:56.810676,12114,1641924296,810173753,imu_iphone,-0.0467107569377,0.0678275932132,-0.149374980857,0.985344933452,"(0.00872665, 0.0, 0.0, 0.0, 0.00872665, 0.0, 0.0, 0.0, 0.00872665)",0.0462529845536,-0.122569032013,0.62289005518,"(0.000872665, 0.0, 0.0, 0.0, 0.000872665, 0.0, 0.0, 0.0, 0.000872665)",1.00601783842,1.77882094234,-0.0963983666897,"(0.003, 0.0, 0.0, 0.0, 0.003, 0.0, 0.0, 0.0, 0.003)"
2022/01/11/19:04:56.840357,12115,1641924296,840021013,imu_iphone,-0.0498995534549,0.0670493379679,-0.14085454223,0.986496030796,"(0.00872665, 0.0, 0.0, 0.0, 0.00872665, 0.0, 0.0, 0.0, 0.00872665)",-0.015485715121,-0.0854908898473,0.514261901379,"(0.000872665, 0.0, 0.0, 0.0, 0.000872665, 0.0, 0.0, 0.0, 0.000872665)",1.09676633298,1.77730870619,-0.0876597028971,"(0.003, 0.0, 0.0, 0.0, 0.003, 0.0, 0.0, 0.0, 0.003)"
2022/01/11/19:04:56.870049,12116,1641924296,869704847,imu_iphone,-0.052266077806,0.0655146244162,-0.134214191395,0.98740196573,"(0.00872665, 0.0, 0.0, 0.0, 0.00872665, 0.0, 0.0, 0.0, 0.00872665)",-0.0708599612117,-0.0474644675851,0.395383864641,"(0.000872665, 0.0, 0.0, 0.0, 0.000872665, 0.0, 0.0, 0.0, 0.000872665)",1.13940466806,1.74679281861,-0.0926029390097,"(0.003, 0.0, 0.0, 0.0, 0.003, 0.0, 0.0, 0.0, 0.003)"
2022/01/11/19:04:56.900507,12117,1641924296,900039894,imu_iphone,-0.0537649609107,0.063362897789,-0.129605188795,0.988077409518,"(0.00872665, 0.0, 0.0, 0.0, 0.00872665, 0.0, 0.0, 0.0, 0.00872665)",-0.12396338582,-0.00307489745319,0.266220808029,"(0.000872665, 0.0, 0.0, 0.0, 0.000872665, 0.0, 0.0, 0.0, 0.000872665)",1.15446570687,1.66764403045,-0.0889332264662,"(0.003, 0.0, 0.0, 0.0, 0.003, 0.0, 0.0, 0.0, 0.003)"
2022/01/11/19:04:56.929645,12118,1641924296,929330084,imu_iphone,-0.0543289814769,0.0606834217222,-0.127153025503,0.988533252959,"(0.00872665, 0.0, 0.0, 0.0, 0.00872665, 0.0, 0.0, 0.0, 0.00872665)",-0.174437135458,0.0330845192075,0.127222344279,"(0.000872665, 0.0, 0.0, 0.0, 0.000872665, 0.0, 0.0, 0.0, 0.000872665)",1.13579503566,1.57805357695,-0.111300580502,"(0.003, 0.0, 0.0, 0.0, 0.003, 0.0, 0.0, 0.0, 0.003)"
2022/01/11/19:04:56.959816,12119,1641924296,959472664,imu_iphone,-0.054036397134,0.0575579946955,-0.1269276428,0.988765148316,"(0.00872665, 0.0, 0.0, 0.0, 0.00872665, 0.0, 0.0, 0.0, 0.00872665)",-0.221638172865,0.0702380388975,-0.0133158192039,"(0.000872665, 0.0, 0.0, 0.0, 0.000872665, 0.0, 0.0, 0.0, 0.000872665)",1.09566990696,1.46867059082,-0.136209719181,"(0.003, 0.0, 0.0, 0.0, 0.003, 0.0, 0.0, 0.0, 0.003)"
2022/01/11/19:04:56.989250,12120,1641924296,988932297,imu_iphone,-0.0529506699925,0.0540580067982,-0.12884770441,0.988773092027,"(0.00872665, 0.0, 0.0, 0.0, 0.00872665, 0.0, 0.0, 0.0, 0.00872665)",-0.26198810339,0.101616561413,-0.145900681615,"(0.000872665, 0.0, 0.0, 0.0, 0.000872665, 0.0, 0.0, 0.0, 0.000872665)",1.01329952225,1.37170182824,-0.163688124418,"(0.003, 0.0, 0.0, 0.0, 0.003, 0.0, 0.0, 0.0, 0.003)"
2022/01/11/19:04:57.019322,12121,1641924297,19025377,imu_iphone,-0.0512484577074,0.050201123756,-0.132736924239,0.988551643416,"(0.00872665, 0.0, 0.0, 0.0, 0.00872665, 0.0, 0.0, 0.0, 0.00872665)",-0.30205860734,0.126682356,-0.267157673836,"(0.000872665, 0.0, 0.0, 0.0, 0.000872665, 0.0, 0.0, 0.0, 0.000872665)",0.936114009842,1.24825526521,-0.19408195138,"(0.003, 0.0, 0.0, 0.0, 0.003, 0.0, 0.0, 0.0, 0.003)"
2022/01/11/19:04:57.048887,12122,1641924297,48535766,imu_iphone,-0.0490962190204,0.0459734571487,-0.138401895505,0.988089529262,"(0.00872665, 0.0, 0.0, 0.0, 0.00872665, 0.0, 0.0, 0.0, 0.00872665)",-0.34005266428,0.150905311108,-0.378169864416,"(0.000872665, 0.0, 0.0, 0.0, 0.000872665, 0.0, 0.0, 0.0, 0.000872665)",0.865272287875,1.11434679084,-0.22407933712,"(0.003, 0.0, 0.0, 0.0, 0.003, 0.0, 0.0, 0.0, 0.003)"
2022/01/11/19:04:57.079212,12123,1641924297,78887677,imu_iphone,-0.0466035834668,0.0413955463898,-0.14566421149,0.987368448067,"(0.00872665, 0.0, 0.0, 0.0, 0.00872665, 0.0, 0.0, 0.0, 0.00872665)",-0.370954036713,0.168872773647,-0.479893624783,"(0.000872665, 0.0, 0.0, 0.0, 0.000872665, 0.0, 0.0, 0.0, 0.000872665)",0.78924985975,0.969755745828,-0.263493663669,"(0.003, 0.0, 0.0, 0.0, 0.003, 0.0, 0.0, 0.0, 0.003)"
2022/01/11/19:04:57.108411,12124,1641924297,108081464,imu_iphone,-0.0438508660874,0.0365013403438,-0.154425677398,0.986355647754,"(0.00872665, 0.0, 0.0, 0.0, 0.00872665, 0.0, 0.0, 0.0, 0.00872665)",-0.394460856915,0.187781020999,-0.578815817833,"(0.000872665, 0.0, 0.0, 0.0, 0.000872665, 0.0, 0.0, 0.0, 0.000872665)",0.719555873126,0.817217384577,-0.281964433193,"(0.003, 0.0, 0.0, 0.0, 0.003, 0.0, 0.0, 0.0, 0.003)"
2022/01/11/19:04:57.138438,12125,1641924297,138107175,imu_iphone,-0.0409891283688,0.0313211439526,-0.164541153543,0.985020348058,"(0.00872665, 0.0, 0.0, 0.0, 0.00872665, 0.0, 0.0, 0.0, 0.00872665)",-0.413972914219,0.198541492224,-0.671623468399,"(0.000872665, 0.0, 0.0, 0.0, 0.000872665, 0.0, 0.0, 0.0, 0.000872665)",0.631917000934,0.653964146823,-0.320153768063,"(0.003, 0.0, 0.0, 0.0, 0.003, 0.0, 0.0, 0.0, 0.003)"
2022/01/11/19:04:57.167210,12126,1641924297,166947032,imu_iphone,-0.0381369009154,0.0258922205967,-0.175891844276,0.983329664364,"(0.00872665, 0.0, 0.0, 0.0, 0.00872665, 0.0, 0.0, 0.0, 0.00872665)",-0.432062506676,0.208993837237,-0.757070958614,"(0.000872665, 0.0, 0.0, 0.0, 0.000872665, 0.0, 0.0, 0.0, 0.000872665)",0.553590696752,0.476899785697,-0.321457112432,"(0.003, 0.0, 0.0, 0.0, 0.003, 0.0, 0.0, 0.0, 0.003)"
2022/01/11/19:04:57.197258,12127,1641924297,196947967,imu_iphone,-0.0353677581467,0.0202273598246,-0.188348799686,0.981256696922,"(0.00872665, 0.0, 0.0, 0.0, 0.00872665, 0.0, 0.0, 0.0, 0.00872665)",-0.445613026619,0.215580224991,-0.834416687489,"(0.000872665, 0.0, 0.0, 0.0, 0.000872665, 0.0, 0.0, 0.0, 0.000872665)",0.461069545671,0.326084087268,-0.354699702859,"(0.003, 0.0, 0.0, 0.0, 0.003, 0.0, 0.0, 0.0, 0.003)"
2022/01/11/19:04:57.228583,12128,1641924297,228243373,imu_iphone,-0.0328072973036,0.0144172616938,-0.201813474324,0.978768177553,"(0.00872665, 0.0, 0.0, 0.0, 0.00872665, 0.0, 0.0, 0.0, 0.00872665)",-0.453487217426,0.217853426933,-0.908708572388,"(0.000872665, 0.0, 0.0, 0.0, 0.000872665, 0.0, 0.0, 0.0, 0.000872665)",0.37185411796,0.155639724433,-0.345529514551,"(0.003, 0.0, 0.0, 0.0, 0.003, 0.0, 0.0, 0.0, 0.003)"
2022/01/11/19:04:57.257918,12129,1641924297,257566951,imu_iphone,-0.0305470162175,0.00849587437957,-0.216206687836,0.975832653714,"(0.00872665, 0.0, 0.0, 0.0, 0.00872665, 0.0, 0.0, 0.0, 0.00872665)",-0.45478913188,0.220964759588,-0.975956082344,"(0.000872665, 0.0, 0.0, 0.0, 0.000872665, 0.0, 0.0, 0.0, 0.000872665)",0.292619668096,0.00583758601919,-0.368947613239,"(0.003, 0.0, 0.0, 0.0, 0.003, 0.0, 0.0, 0.0, 0.003)"
2022/01/11/19:04:57.288960,12130,1641924297,287820307,imu_iphone,-0.0286602878416,0.00252536256614,-0.231412796825,0.972430114667,"(0.00872665, 0.0, 0.0, 0.0, 0.00872665, 0.0, 0.0, 0.0, 0.00872665)",-0.454270988703,0.215170353651,-1.04129266739,"(0.000872665, 0.0, 0.0, 0.0, 0.000872665, 0.0, 0.0, 0.0, 0.000872665)",0.209353014864,-0.152598350029,-0.373248825073,"(0.003, 0.0, 0.0, 0.0, 0.003, 0.0, 0.0, 0.0, 0.003)"
2022/01/11/19:04:57.429705,12131,1641924297,429129749,imu_iphone,-0.0272296863421,-0.00343532955855,-0.247320455242,0.968544957713,"(0.00872665, 0.0, 0.0, 0.0, 0.00872665, 0.0, 0.0, 0.0, 0.00872665)",-0.453817725182,0.207266956568,-1.09341537952,"(0.000872665, 0.0, 0.0, 0.0, 0.000872665, 0.0, 0.0, 0.0, 0.000872665)",0.131040451638,-0.289020670317,-0.378372740149,"(0.003, 0.0, 0.0, 0.0, 0.003, 0.0, 0.0, 0.0, 0.003)"
2022/01/11/19:04:57.436204,12132,1641924297,435718460,imu_iphone,-0.0270868350331,-0.0260529211852,-0.315198186935,0.948281420054,"(0.00872665, 0.0, 0.0, 0.0, 0.00872665, 0.0, 0.0, 0.0, 0.00872665)",-0.41927832365,0.155826359987,-1.20278382301,"(0.000872665, 0.0, 0.0, 0.0, 0.000872665, 0.0, 0.0, 0.0, 0.000872665)",-0.103081076369,-0.845779571235,-0.364511915445,"(0.003, 0.0, 0.0, 0.0, 0.003, 0.0, 0.0, 0.0, 0.003)"
2022/01/11/19:04:57.466983,12133,1641924297,465870775,imu_iphone,-0.0285186870179,-0.0310628274346,-0.332355192265,0.942211128897,"(0.00872665, 0.0, 0.0, 0.0, 0.00872665, 0.0, 0.0, 0.0, 0.00872665)",-0.404770493507,0.139629676938,-1.19681560993,"(0.000872665, 0.0, 0.0, 0.0, 0.000872665, 0.0, 0.0, 0.0, 0.000872665)",-0.120378090441,-0.966169721559,-0.33860699594,"(0.003, 0.0, 0.0, 0.0, 0.003, 0.0, 0.0, 0.0, 0.003)"
2022/01/11/19:04:57.605914,12134,1641924297,605152395,imu_iphone,-0.0305023352284,-0.0357189621319,-0.349170274428,0.935881340099,"(0.00872665, 0.0, 0.0, 0.0, 0.00872665, 0.0, 0.0, 0.0, 0.00872665)",-0.391676694155,0.120276965201,-1.17200767994,"(0.000872665, 0.0, 0.0, 0.0, 0.000872665, 0.0, 0.0, 0.0, 0.000872665)",-0.13607859537,-1.08098491721,-0.332335272431,"(0.003, 0.0, 0.0, 0.0, 0.003, 0.0, 0.0, 0.0, 0.003)"
2022/01/11/19:04:57.615093,12135,1641924297,614536876,imu_iphone,-0.0418105527568,-0.0504439624129,-0.408871964456,0.91023678294,"(0.00872665, 0.0, 0.0, 0.0, 0.00872665, 0.0, 0.0, 0.0, 0.00872665)",-0.315517634153,0.0694144144654,-0.928017556667,"(0.000872665, 0.0, 0.0, 0.0, 0.000872665, 0.0, 0.0, 0.0, 0.000872665)",-0.0269597572088,-1.54927738219,-0.280764584541,"(0.003, 0.0, 0.0, 0.0, 0.003, 0.0, 0.0, 0.0, 0.003)"
2022/01/11/19:04:57.644284,12136,1641924297,643857673,imu_iphone,-0.0448451514496,-0.0531514531489,-0.421097989204,0.904345243205,"(0.00872665, 0.0, 0.0, 0.0, 0.00872665, 0.0, 0.0, 0.0, 0.00872665)",-0.282345920801,0.0646213889122,-0.842194676399,"(0.000872665, 0.0, 0.0, 0.0, 0.000872665, 0.0, 0.0, 0.0, 0.000872665)",-0.00149118617177,-1.66999680385,-0.245322856307,"(0.003, 0.0, 0.0, 0.0, 0.003, 0.0, 0.0, 0.0, 0.003)"
2022/01/11/19:04:57.675097,12137,1641924297,674805927,imu_iphone,-0.0476817943164,-0.0555087246563,-0.432031606034,0.898884819855,"(0.00872665, 0.0, 0.0, 0.0, 0.00872665, 0.0, 0.0, 0.0, 0.00872665)",-0.256315648556,0.0627321973443,-0.751170456409,"(0.000872665, 0.0, 0.0, 0.0, 0.000872665, 0.0, 0.0, 0.0, 0.000872665)",0.0294130661711,-1.77920788184,-0.240977790356,"(0.003, 0.0, 0.0, 0.0, 0.003, 0.0, 0.0, 0.0, 0.003)"
2022/01/11/19:04:57.704453,12138,1641924297,703926724,imu_iphone,-0.0502105482796,-0.0575176611107,-0.441643616523,0.893935979523,"(0.00872665, 0.0, 0.0, 0.0, 0.00872665, 0.0, 0.0, 0.0, 0.00872665)",-0.222773581743,0.0608443617821,-0.656394839287,"(0.000872665, 0.0, 0.0, 0.0, 0.000872665, 0.0, 0.0, 0.0, 0.000872665)",0.0547314734012,-1.88441464037,-0.218854849935,"(0.003, 0.0, 0.0, 0.0, 0.003, 0.0, 0.0, 0.0, 0.003)"
2022/01/11/19:04:57.734201,12139,1641924297,733880346,imu_iphone,-0.0523130934075,-0.0591822590833,-0.449943013525,0.889557241018,"(0.00872665, 0.0, 0.0, 0.0, 0.00872665, 0.0, 0.0, 0.0, 0.00872665)",-0.179190039635,0.0650031939149,-0.56306040287,"(0.000872665, 0.0, 0.0, 0.0, 0.000872665, 0.0, 0.0, 0.0, 0.000872665)",0.0739803611487,-1.98585754618,-0.19755636692,"(0.003, 0.0, 0.0, 0.0, 0.003, 0.0, 0.0, 0.0, 0.003)"
2022/01/11/19:04:57.763970,12140,1641924297,763624999,imu_iphone,-0.0538926262837,-0.0604654236425,-0.456930795915,0.885806844137,"(0.00872665, 0.0, 0.0, 0.0, 0.00872665, 0.0, 0.0, 0.0, 0.00872665)",-0.132420048118,0.0702831223607,-0.470909506083,"(0.000872665, 0.0, 0.0, 0.0, 0.000872665, 0.0, 0.0, 0.0, 0.000872665)",0.0860482833534,-2.07543133512,-0.19413048327,"(0.003, 0.0, 0.0, 0.0, 0.003, 0.0, 0.0, 0.0, 0.003)"
2022/01/11/19:04:57.794262,12141,1641924297,793845362,imu_iphone,-0.054860491229,-0.0613360837323,-0.46263403462,0.882721904875,"(0.00872665, 0.0, 0.0, 0.0, 0.00872665, 0.0, 0.0, 0.0, 0.00872665)",-0.0822007581592,0.0777663588524,-0.379288643599,"(0.000872665, 0.0, 0.0, 0.0, 0.000872665, 0.0, 0.0, 0.0, 0.000872665)",0.0776949510723,-2.14342948303,-0.171631566882,"(0.003, 0.0, 0.0, 0.0, 0.003, 0.0, 0.0, 0.0, 0.003)"
2022/01/11/19:04:57.823410,12142,1641924297,823104075,imu_iphone,-0.0551521466749,-0.0617845362075,-0.46709137835,0.880321848005,"(0.00872665, 0.0, 0.0, 0.0, 0.00872665, 0.0, 0.0, 0.0, 0.00872665)",-0.0297485478222,0.0800531283021,-0.292071640491,"(0.000872665, 0.0, 0.0, 0.0, 0.000872665, 0.0, 0.0, 0.0, 0.000872665)",0.0491201198101,-2.20066407636,-0.162866005898,"(0.003, 0.0, 0.0, 0.0, 0.003, 0.0, 0.0, 0.0, 0.003)"
2022/01/11/19:04:57.853353,12143,1641924297,852997092,imu_iphone,-0.0547701449111,-0.0617736259508,-0.47034809796,0.878610788181,"(0.00872665, 0.0, 0.0, 0.0, 0.00872665, 0.0, 0.0, 0.0, 0.00872665)",0.025801545009,0.0852663964033,-0.204310059547,"(0.000872665, 0.0, 0.0, 0.0, 0.000872665, 0.0, 0.0, 0.0, 0.000872665)",0.0253102576733,-2.21965627134,-0.159771074653,"(0.003, 0.0, 0.0, 0.0, 0.003, 0.0, 0.0, 0.0, 0.003)"
2022/01/11/19:04:57.883124,12144,1641924297,882815102,imu_iphone,-0.0536921744934,-0.0612581600271,-0.472452855817,0.877583550016,"(0.00872665, 0.0, 0.0, 0.0, 0.00872665, 0.0, 0.0, 0.0, 0.00872665)",0.0858981236815,0.0902823209763,-0.120439730585,"(0.000872665, 0.0, 0.0, 0.0, 0.000872665, 0.0, 0.0, 0.0, 0.000872665)",-0.0226635885984,-2.21333148435,-0.172548410296,"(0.003, 0.0, 0.0, 0.0, 0.003, 0.0, 0.0, 0.0, 0.003)"
2022/01/11/19:04:57.912930,12145,1641924297,912556656,imu_iphone,-0.0519271425754,-0.0602003036448,-0.473430159809,0.877236216243,"(0.00872665, 0.0, 0.0, 0.0, 0.00872665, 0.0, 0.0, 0.0, 0.00872665)",0.14337810874,0.0876120179892,-0.0392132513225,"(0.000872665, 0.0, 0.0, 0.0, 0.000872665, 0.0, 0.0, 0.0, 0.000872665)",-0.0583783087134,-2.15464283466,-0.172058413625,"(0.003, 0.0, 0.0, 0.0, 0.003, 0.0, 0.0, 0.0, 0.003)"
2022/01/11/19:04:57.942632,12146,1641924297,942385855,imu_iphone,-0.0490337304911,-0.0576246793271,-0.473339464295,0.877624544522,"(0.00872665, 0.0, 0.0, 0.0, 0.00872665, 0.0, 0.0, 0.0, 0.00872665)",0.198262989521,0.0868943110108,0.0416364371777,"(0.000872665, 0.0, 0.0, 0.0, 0.000872665, 0.0, 0.0, 0.0, 0.000872665)",-0.117457552403,-2.05489869118,-0.190759563446,"(0.003, 0.0, 0.0, 0.0, 0.003, 0.0, 0.0, 0.0, 0.003)"
2022/01/11/19:04:57.972405,12147,1641924297,972119037,imu_iphone,-0.0447264295193,-0.0526216978696,-0.472235863285,0.878762648753,"(0.00872665, 0.0, 0.0, 0.0, 0.00872665, 0.0, 0.0, 0.0, 0.00872665)",0.25081461668,0.0831863880157,0.121567822993,"(0.000872665, 0.0, 0.0, 0.0, 0.000872665, 0.0, 0.0, 0.0, 0.000872665)",-0.160388412718,-1.8943793191,-0.194916933775,"(0.003, 0.0, 0.0, 0.0, 0.003, 0.0, 0.0, 0.0, 0.003)"
2022/01/11/19:04:58.002234,12148,1641924298,1986029,imu_iphone,-0.040151077013,-0.0472229885368,-0.470037611991,0.880467218971,"(0.00872665, 0.0, 0.0, 0.0, 0.00872665, 0.0, 0.0, 0.0, 0.00872665)",0.299315541983,0.0756368637085,0.207584127784,"(0.000872665, 0.0, 0.0, 0.0, 0.000872665, 0.0, 0.0, 0.0, 0.000872665)",-0.191262332629,-1.69229238331,-0.21549094677,"(0.003, 0.0, 0.0, 0.0, 0.003, 0.0, 0.0, 0.0, 0.003)"
2022/01/11/19:04:58.032048,12149,1641924298,31767440,imu_iphone,-0.0357586107584,-0.0422814294037,-0.466691409998,0.882684955303,"(0.00872665, 0.0, 0.0, 0.0, 0.00872665, 0.0, 0.0, 0.0, 0.00872665)",0.341739684343,0.0723255351186,0.290425688028,"(0.000872665, 0.0, 0.0, 0.0, 0.000872665, 0.0, 0.0, 0.0, 0.000872665)",-0.230559915863,-1.49915110275,-0.238591541648,"(0.003, 0.0, 0.0, 0.0, 0.003, 0.0, 0.0, 0.0, 0.003)"
2022/01/11/19:04:58.062171,12150,1641924298,61862226,imu_iphone,-0.0317826559712,-0.0384865503873,-0.462181120116,0.885379726686,"(0.00872665, 0.0, 0.0, 0.0, 0.00872665, 0.0, 0.0, 0.0, 0.00872665)",0.377398788929,0.0596886202693,0.375238895416,"(0.000872665, 0.0, 0.0, 0.0, 0.000872665, 0.0, 0.0, 0.0, 0.000872665)",-0.244164778702,-1.31825900808,-0.263983075619,"(0.003, 0.0, 0.0, 0.0, 0.003, 0.0, 0.0, 0.0, 0.003)"
2022/01/11/19:04:58.091776,12151,1641924298,91484217,imu_iphone,-0.0276782978329,-0.0342431424409,-0.456573706502,0.888595391366,"(0.00872665, 0.0, 0.0, 0.0, 0.00872665, 0.0, 0.0, 0.0, 0.00872665)",0.406092017889,0.0519629381597,0.460405081511,"(0.000872665, 0.0, 0.0, 0.0, 0.000872665, 0.0, 0.0, 0.0, 0.000872665)",-0.267427779995,-1.13758640327,-0.278287119269,"(0.003, 0.0, 0.0, 0.0, 0.003, 0.0, 0.0, 0.0, 0.003)"
2022/01/11/19:04:58.121411,12152,1641924298,121047833,imu_iphone,-0.0235406659174,-0.0295949574202,-0.449857852451,0.892299214463,"(0.00872665, 0.0, 0.0, 0.0, 0.00872665, 0.0, 0.0, 0.0, 0.00872665)",0.425466477871,0.0399332903326,0.540406405926,"(0.000872665, 0.0, 0.0, 0.0, 0.000872665, 0.0, 0.0, 0.0, 0.000872665)",-0.290369732603,-0.936503434405,-0.29315541923,"(0.003, 0.0, 0.0, 0.0, 0.003, 0.0, 0.0, 0.0, 0.003)"
2022/01/11/19:04:58.151241,12153,1641924298,150977327,imu_iphone,-0.0194995381949,-0.0245584862284,-0.442056768543,0.896438766537,"(0.00872665, 0.0, 0.0, 0.0, 0.00872665, 0.0, 0.0, 0.0, 0.00872665)",0.443995028734,0.0264554005116,0.618966400623,"(0.000872665, 0.0, 0.0, 0.0, 0.000872665, 0.0, 0.0, 0.0, 0.000872665)",-0.316710671671,-0.726799038425,-0.31373118639,"(0.003, 0.0, 0.0, 0.0, 0.003, 0.0, 0.0, 0.0, 0.003)"
2022/01/11/19:04:58.182875,12154,1641924298,182408947,imu_iphone,-0.0156858094913,-0.0191992472305,-0.43321475995,0.900949674537,"(0.00872665, 0.0, 0.0, 0.0, 0.00872665, 0.0, 0.0, 0.0, 0.00872665)",0.452688038349,0.00774960406125,0.691874563694,"(0.000872665, 0.0, 0.0, 0.0, 0.000872665, 0.0, 0.0, 0.0, 0.000872665)",-0.346507607549,-0.532278618962,-0.295569734573,"(0.003, 0.0, 0.0, 0.0, 0.003, 0.0, 0.0, 0.0, 0.003)"
2022/01/11/19:04:58.209962,12155,1641924298,209671055,imu_iphone,-0.0122548549187,-0.0135746266469,-0.423301405915,0.905804320918,"(0.00872665, 0.0, 0.0, 0.0, 0.00872665, 0.0, 0.0, 0.0, 0.00872665)",0.449898838997,-0.00894543621689,0.766859471798,"(0.000872665, 0.0, 0.0, 0.0, 0.000872665, 0.0, 0.0, 0.0, 0.000872665)",-0.358234783262,-0.33599018421,-0.294113777876,"(0.003, 0.0, 0.0, 0.0, 0.003, 0.0, 0.0, 0.0, 0.003)"
2022/01/11/19:04:58.240709,12156,1641924298,240395917,imu_iphone,-0.00930200344076,-0.0077961795334,-0.412341862815,0.910948341283,"(0.00872665, 0.0, 0.0, 0.0, 0.00872665, 0.0, 0.0, 0.0, 0.00872665)",0.446257442236,-0.0242776442319,0.839530646801,"(0.000872665, 0.0, 0.0, 0.0, 0.000872665, 0.0, 0.0, 0.0, 0.000872665)",-0.359657228105,-0.162802070249,-0.307955306768,"(0.003, 0.0, 0.0, 0.0, 0.003, 0.0, 0.0, 0.0, 0.003)"
2022/01/11/19:04:58.270480,12157,1641924298,270142081,imu_iphone,-0.006921953045,-0.0018577927213,-0.400395179421,0.916314539593,"(0.00872665, 0.0, 0.0, 0.0, 0.00872665, 0.0, 0.0, 0.0, 0.00872665)",0.438022643328,-0.0452365502715,0.903700530529,"(0.000872665, 0.0, 0.0, 0.0, 0.000872665, 0.0, 0.0, 0.0, 0.000872665)",-0.340564607196,0.00892201054841,-0.298588652015,"(0.003, 0.0, 0.0, 0.0, 0.003, 0.0, 0.0, 0.0, 0.003)"
2022/01/11/19:04:58.300171,12158,1641924298,299942834,imu_iphone,-0.00517230696565,0.0041624103982,-0.387561379459,0.921819992586,"(0.00872665, 0.0, 0.0, 0.0, 0.00872665, 0.0, 0.0, 0.0, 0.00872665)",0.424839913845,-0.0650395601988,0.957051694393,"(0.000872665, 0.0, 0.0, 0.0, 0.000872665, 0.0, 0.0, 0.0, 0.000872665)",-0.321773227528,0.171569641214,-0.285722438693,"(0.003, 0.0, 0.0, 0.0, 0.003, 0.0, 0.0, 0.0, 0.003)"
2022/01/11/19:04:58.329859,12159,1641924298,329581855,imu_iphone,-0.00410221988147,0.0101810893742,-0.373860156579,0.92742013162,"(0.00872665, 0.0, 0.0, 0.0, 0.00872665, 0.0, 0.0, 0.0, 0.00872665)",0.414068758488,-0.0824968665838,1.00623226166,"(0.000872665, 0.0, 0.0, 0.0, 0.000872665, 0.0, 0.0, 0.0, 0.000872665)",-0.286570358053,0.296769985221,-0.295304270983,"(0.003, 0.0, 0.0, 0.0, 0.003, 0.0, 0.0, 0.0, 0.003)"
2022/01/11/19:04:58.359884,12160,1641924298,359493357,imu_iphone,-0.00373148139282,0.0160836536471,-0.359440221043,0.933022035982,"(0.00872665, 0.0, 0.0, 0.0, 0.00872665, 0.0, 0.0, 0.0, 0.00872665)",0.394564568996,-0.0940405204892,1.04421329498,"(0.000872665, 0.0, 0.0, 0.0, 0.000872665, 0.0, 0.0, 0.0, 0.000872665)",-0.234251847826,0.430372832939,-0.277781919837,"(0.003, 0.0, 0.0, 0.0, 0.003, 0.0, 0.0, 0.0, 0.003)"
2022/01/11/19:04:58.389557,12161,1641924298,389176575,imu_iphone,-0.00402862930532,0.0218695080712,-0.344451497672,0.938540707969,"(0.00872665, 0.0, 0.0, 0.0, 0.00872665, 0.0, 0.0, 0.0, 0.00872665)",0.379129230976,-0.109040826559,1.06970894337,"(0.000872665, 0.0, 0.0, 0.0, 0.000872665, 0.0, 0.0, 0.0, 0.000872665)",-0.184573940188,0.535350234434,-0.274650735855,"(0.003, 0.0, 0.0, 0.0, 0.003, 0.0, 0.0, 0.0, 0.003)"
2022/01/11/19:04:58.419346,12162,1641924298,419002823,imu_iphone,-0.00499994287011,0.0274549744046,-0.329089855561,0.943886164703,"(0.00872665, 0.0, 0.0, 0.0, 0.00872665, 0.0, 0.0, 0.0, 0.00872665)",0.361673623323,-0.123293243349,1.07622432709,"(0.000872665, 0.0, 0.0, 0.0, 0.000872665, 0.0, 0.0, 0.0, 0.000872665)",-0.140882375389,0.636473078281,-0.270049561858,"(0.003, 0.0, 0.0, 0.0, 0.003, 0.0, 0.0, 0.0, 0.003)"
2022/01/11/19:04:58.448917,12163,1641924298,448605042,imu_iphone,-0.00656610920711,0.0327889968011,-0.313592591768,0.948968626608,"(0.00872665, 0.0, 0.0, 0.0, 0.00872665, 0.0, 0.0, 0.0, 0.00872665)",0.347125172615,-0.132464945316,1.06941103935,"(0.000872665, 0.0, 0.0, 0.0, 0.000872665, 0.0, 0.0, 0.0, 0.000872665)",-0.0815138772503,0.743580620438,-0.246921485066,"(0.003, 0.0, 0.0, 0.0, 0.003, 0.0, 0.0, 0.0, 0.003)"
2022/01/11/19:04:58.479465,12164,1641924298,478842050,imu_iphone,-0.00869853735292,0.0378131231769,-0.298133661718,0.953735195384,"(0.00872665, 0.0, 0.0, 0.0, 0.00872665, 0.0, 0.0, 0.0, 0.00872665)",0.325362533331,-0.143372192979,1.04961800575,"(0.000872665, 0.0, 0.0, 0.0, 0.000872665, 0.0, 0.0, 0.0, 0.000872665)",-0.0326311909407,0.837063711584,-0.261106245518,"(0.003, 0.0, 0.0, 0.0, 0.003, 0.0, 0.0, 0.0, 0.003)"
2022/01/11/19:04:58.509069,12165,1641924298,508631988,imu_iphone,-0.0113026049368,0.0425141655531,-0.282978140845,0.95811699111,"(0.00872665, 0.0, 0.0, 0.0, 0.00872665, 0.0, 0.0, 0.0, 0.00872665)",0.305809140205,-0.151065394282,1.01153039932,"(0.000872665, 0.0, 0.0, 0.0, 0.000872665, 0.0, 0.0, 0.0, 0.000872665)",0.0406070489064,0.93597484611,-0.247831896544,"(0.003, 0.0, 0.0, 0.0, 0.003, 0.0, 0.0, 0.0, 0.003)"
2022/01/11/19:04:58.538927,12166,1641924298,538426375,imu_iphone,-0.0142950912293,0.0468288365772,-0.268323307095,0.962083839019,"(0.00872665, 0.0, 0.0, 0.0, 0.00872665, 0.0, 0.0, 0.0, 0.00872665)",0.28509619832,-0.15684466064,0.963534712791,"(0.000872665, 0.0, 0.0, 0.0, 0.000872665, 0.0, 0.0, 0.0, 0.000872665)",0.113403458521,1.03262274273,-0.230253996849,"(0.003, 0.0, 0.0, 0.0, 0.003, 0.0, 0.0, 0.0, 0.003)"
2022/01/11/19:04:58.573092,12167,1641924298,572734574,imu_iphone,-0.0175970502677,0.0507060976852,-0.254319478487,0.96562976256,"(0.00872665, 0.0, 0.0, 0.0, 0.00872665, 0.0, 0.0, 0.0, 0.00872665)",0.258280932903,-0.161702424288,0.905982971191,"(0.000872665, 0.0, 0.0, 0.0, 0.000872665, 0.0, 0.0, 0.0, 0.000872665)",0.200051300749,1.1238833072,-0.229560517073,"(0.003, 0.0, 0.0, 0.0, 0.003, 0.0, 0.0, 0.0, 0.003)"
2022/01/11/19:04:58.598159,12168,1641924298,597795849,imu_iphone,-0.021119697898,0.0540943463073,-0.241118330065,0.968756786281,"(0.00872665, 0.0, 0.0, 0.0, 0.00872665, 0.0, 0.0, 0.0, 0.00872665)",0.233668118715,-0.161861658096,0.84525257349,"(0.000872665, 0.0, 0.0, 0.0, 0.000872665, 0.0, 0.0, 0.0, 0.000872665)",0.286549308077,1.21431502886,-0.207768529058,"(0.003, 0.0, 0.0, 0.0, 0.003, 0.0, 0.0, 0.0, 0.003)"
2022/01/11/19:04:58.633117,12169,1641924298,632843981,imu_iphone,-0.0247608956268,0.0569926279691,-0.228820743816,0.971483301763,"(0.00872665, 0.0, 0.0, 0.0, 0.00872665, 0.0, 0.0, 0.0, 0.00872665)",0.200194686651,-0.162504583597,0.778185784817,"(0.000872665, 0.0, 0.0, 0.0, 0.000872665, 0.0, 0.0, 0.0, 0.000872665)",0.37859720014,1.30925020292,-0.184132329226,"(0.003, 0.0, 0.0, 0.0, 0.003, 0.0, 0.0, 0.0, 0.003)"
