time,.header.seq,.header.stamp.secs,secs,,.header.frame_id,.header.stamp.nsecs,.orientation.x,.orientation.y,.orientation.z,.orientation.w,.orientation_covariance,.angular_velocity.x,.angular_velocity.y,.angular_velocity.z,.angular_velocity_covariance,.linear_acceleration.x,.linear_acceleration.y,.linear_acceleration.z,.linear_acceleration_covariance
2022/03/09/18:22:16.269977,8567,1646846536,0.268932178,1646846536.26893,0.00288435735084,0.0203185894041,-0.911405063953,0.410998351344,"(0.00872665, 0.0, 0.0, 0.0, 0.00872665, 0.0, 0.0, 0.0, 0.00872665)",0.000797258224338,-0.00114612001926,0.000667270738631,"(0.000872665, 0.0, 0.0, 0.0, 0.000872665, 0.0, 0.0, 0.0, 0.000872665)",-0.00765411492437,-0.00851303435862,-0.110650370121,"(0.003, 0.0, 0.0, 0.0, 0.003, 0.0, 0.0, 0.0, 0.003)",,
2022/03/09/18:22:16.299087,8568,1646846536,0.298762016,1646846536.29876,0.00288881697074,0.0203207628909,-0.911412830912,0.410980988589,"(0.00872665, 0.0, 0.0, 0.0, 0.00872665, 0.0, 0.0, 0.0, 0.00872665)",-0.000476176850498,-0.000111698172987,-0.00113903312013,"(0.000872665, 0.0, 0.0, 0.0, 0.000872665, 0.0, 0.0, 0.0, 0.000872665)",0.0011845362559,-0.0106675688736,-0.114244653583,"(0.003, 0.0, 0.0, 0.0, 0.003, 0.0, 0.0, 0.0, 0.003)",,
2022/03/09/18:22:16.328835,8569,1646846536,0.328371331,1646846536.32837,0.00288904188713,0.0203125357362,-0.911408180439,0.410991706677,"(0.00872665, 0.0, 0.0, 0.0, 0.00872665, 0.0, 0.0, 0.0, 0.00872665)",0.00336042745039,0.00251430366188,0.00058877049014,"(0.000872665, 0.0, 0.0, 0.0, 0.000872665, 0.0, 0.0, 0.0, 0.000872665)",-0.00211029667407,-0.00698365855962,-0.115585420132,"(0.003, 0.0, 0.0, 0.0, 0.003, 0.0, 0.0, 0.0, 0.003)",,
2022/03/09/18:22:16.359268,8570,1646846536,0.358918559,1646846536.35892,0.00290438802914,0.0203102190477,-0.911405461426,0.410997742592,"(0.00872665, 0.0, 0.0, 0.0, 0.00872665, 0.0, 0.0, 0.0, 0.00872665)",-0.000551606528461,-0.00111936964095,8.59145075083E-05,"(0.000872665, 0.0, 0.0, 0.0, 0.000872665, 0.0, 0.0, 0.0, 0.000872665)",-0.013952662535,-0.00507911078632,-0.118728883266,"(0.003, 0.0, 0.0, 0.0, 0.003, 0.0, 0.0, 0.0, 0.003)",,
2022/03/09/18:22:16.388529,8571,1646846536,0.388102532,1646846536.3881,0.00290345856877,0.0203130486667,-0.911405373524,0.410997804244,"(0.00872665, 0.0, 0.0, 0.0, 0.00872665, 0.0, 0.0, 0.0, 0.00872665)",-0.000952590256929,-0.00248913047835,0.00300721102394,"(0.000872665, 0.0, 0.0, 0.0, 0.000872665, 0.0, 0.0, 0.0, 0.000872665)",-0.0143436950818,-0.00731822893023,-0.124120016098,"(0.003, 0.0, 0.0, 0.0, 0.003, 0.0, 0.0, 0.0, 0.003)",,
2022/03/09/18:22:16.418630,8572,1646846536,0.418250696,1646846536.41825,0.00290263849613,0.0202982999151,-0.911405248343,0.410998816303,"(0.00872665, 0.0, 0.0, 0.0, 0.00872665, 0.0, 0.0, 0.0, 0.00872665)",-0.00166147574782,0.00131577532738,-0.000958968419582,"(0.000872665, 0.0, 0.0, 0.0, 0.000872665, 0.0, 0.0, 0.0, 0.000872665)",-0.00666739728302,-0.000266377218068,-0.122312057018,"(0.003, 0.0, 0.0, 0.0, 0.003, 0.0, 0.0, 0.0, 0.003)",,
2022/03/09/18:22:16.447597,8573,1646846536,0.447174636,1646846536.44717,0.0029119631752,0.0202743066528,-0.911409406519,0.410990713605,"(0.00872665, 0.0, 0.0, 0.0, 0.00872665, 0.0, 0.0, 0.0, 0.00872665)",0.000300430692732,-0.000435571186244,-0.00188381737098,"(0.000872665, 0.0, 0.0, 0.0, 0.000872665, 0.0, 0.0, 0.0, 0.000872665)",-0.00806765925139,-0.0122711860389,-0.109121323228,"(0.003, 0.0, 0.0, 0.0, 0.003, 0.0, 0.0, 0.0, 0.003)",,
2022/03/09/18:22:16.479860,8574,1646846536,0.479524114,1646846536.47952,0.00291272748388,0.0202790323351,-0.911406002599,0.410998023465,"(0.00872665, 0.0, 0.0, 0.0, 0.00872665, 0.0, 0.0, 0.0, 0.00872665)",8.11461359262E-05,-0.00248565711081,0.00112101109698,"(0.000872665, 0.0, 0.0, 0.0, 0.000872665, 0.0, 0.0, 0.0, 0.000872665)",-0.0120326927304,-0.0114682536945,-0.117357711196,"(0.003, 0.0, 0.0, 0.0, 0.003, 0.0, 0.0, 0.0, 0.003)",,
2022/03/09/18:22:16.509369,8575,1646846536,0.508821971,1646846536.50882,0.00292201103181,0.0202748416276,-0.911404466796,0.411001570014,"(0.00872665, 0.0, 0.0, 0.0, 0.00872665, 0.0, 0.0, 0.0, 0.00872665)",0.0013188906014,-0.00278547313064,-0.00107985455543,"(0.000872665, 0.0, 0.0, 0.0, 0.000872665, 0.0, 0.0, 0.0, 0.000872665)",-0.00739321947098,-0.00774217033759,-0.113762843013,"(0.003, 0.0, 0.0, 0.0, 0.003, 0.0, 0.0, 0.0, 0.003)",,
2022/03/09/18:22:16.538742,8576,1646846536,0.537122247,1646846536.53712,0.00293714416078,0.0202879776948,-0.911403088884,0.411003869469,"(0.00872665, 0.0, 0.0, 0.0, 0.00872665, 0.0, 0.0, 0.0, 0.00872665)",0.000735341571271,-0.00158484373242,-0.00336306868121,"(0.000872665, 0.0, 0.0, 0.0, 0.000872665, 0.0, 0.0, 0.0, 0.000872665)",-0.00443697687238,-0.015148619134,-0.1169185853,"(0.003, 0.0, 0.0, 0.0, 0.003, 0.0, 0.0, 0.0, 0.003)",,
2022/03/09/18:22:16.567003,8577,1646846536,0.566610518,1646846536.56661,0.00292916098638,0.0202941421581,-0.911409000065,0.410990513772,"(0.00872665, 0.0, 0.0, 0.0, 0.00872665, 0.0, 0.0, 0.0, 0.00872665)",-3.98503616452E-05,0.000117426738143,0.000869824085385,"(0.000872665, 0.0, 0.0, 0.0, 0.000872665, 0.0, 0.0, 0.0, 0.000872665)",-0.0114443166554,-0.00611563939601,-0.107791666389,"(0.003, 0.0, 0.0, 0.0, 0.003, 0.0, 0.0, 0.0, 0.003)",,
2022/03/09/18:22:16.600108,8578,1646846536,0.59977259,1646846536.59977,0.00292117989604,0.0203051962594,-0.911407605229,0.410993117756,"(0.00872665, 0.0, 0.0, 0.0, 0.00872665, 0.0, 0.0, 0.0, 0.00872665)",8.93119722605E-05,-0.000482490286231,0.000815117266029,"(0.000872665, 0.0, 0.0, 0.0, 0.000872665, 0.0, 0.0, 0.0, 0.000872665)",-0.0110333304852,-0.0112576808408,-0.123068102002,"(0.003, 0.0, 0.0, 0.0, 0.003, 0.0, 0.0, 0.0, 0.003)",,
2022/03/09/18:22:16.627856,8579,1646846536,0.626521506,1646846536.62652,0.00291714748197,0.0203111049771,-0.911408039453,0.410991891509,"(0.00872665, 0.0, 0.0, 0.0, 0.00872665, 0.0, 0.0, 0.0, 0.00872665)",0.00130263995379,0.000500124879181,-0.000742301344872,"(0.000872665, 0.0, 0.0, 0.0, 0.000872665, 0.0, 0.0, 0.0, 0.000872665)",-0.00071606464684,-0.00843851890415,-0.129209432602,"(0.003, 0.0, 0.0, 0.0, 0.003, 0.0, 0.0, 0.0, 0.003)",,
2022/03/09/18:22:16.656792,8580,1646846536,0.656316259,1646846536.65632,0.00290663260814,0.0203110397436,-0.911407055032,0.410994152257,"(0.00872665, 0.0, 0.0, 0.0, 0.00872665, 0.0, 0.0, 0.0, 0.00872665)",-0.00242893397808,0.00191867072135,-0.00024047261104,"(0.000872665, 0.0, 0.0, 0.0, 0.000872665, 0.0, 0.0, 0.0, 0.000872665)",-0.00362673550844,-0.00952434685081,-0.127112621069,"(0.003, 0.0, 0.0, 0.0, 0.003, 0.0, 0.0, 0.0, 0.003)",,
2022/03/09/18:22:16.687486,8581,1646846536,0.686010492,1646846536.68601,0.00290788503772,0.0203100089868,-0.911410500122,0.410986554532,"(0.00872665, 0.0, 0.0, 0.0, 0.00872665, 0.0, 0.0, 0.0, 0.00872665)",0.00177118880674,-0.000583906657994,-0.000278980936855,"(0.000872665, 0.0, 0.0, 0.0, 0.000872665, 0.0, 0.0, 0.0, 0.000872665)",-0.0120360183343,-0.00966279795393,-0.11274191916,"(0.003, 0.0, 0.0, 0.0, 0.003, 0.0, 0.0, 0.0, 0.003)",,
2022/03/09/18:22:16.720025,8582,1646846536,0.718142301,1646846536.71814,0.00291025645148,0.0203029350445,-0.911409580053,0.410988927617,"(0.00872665, 0.0, 0.0, 0.0, 0.00872665, 0.0, 0.0, 0.0, 0.00872665)",-0.000215076841414,0.00126322545111,0.00147354695946,"(0.000872665, 0.0, 0.0, 0.0, 0.000872665, 0.0, 0.0, 0.0, 0.000872665)",-0.00454796433449,-0.0153646737523,-0.116777667403,"(0.003, 0.0, 0.0, 0.0, 0.003, 0.0, 0.0, 0.0, 0.003)",,
2022/03/09/18:22:16.746044,8583,1646846536,0.745612152,1646846536.74561,0.00292499663834,0.0202963700967,-0.911407342358,0.410994109508,"(0.00872665, 0.0, 0.0, 0.0, 0.00872665, 0.0, 0.0, 0.0, 0.00872665)",0.00221478287131,0.000889015384018,-0.000152461696416,"(0.000872665, 0.0, 0.0, 0.0, 0.000872665, 0.0, 0.0, 0.0, 0.000872665)",-0.00553387798369,-0.00632045639679,-0.115576649308,"(0.003, 0.0, 0.0, 0.0, 0.003, 0.0, 0.0, 0.0, 0.003)",,
2022/03/09/18:22:16.775671,8584,1646846536,0.775322228,1646846536.77532,0.00292373888847,0.0202898971446,-0.911408161664,0.410992621195,"(0.00872665, 0.0, 0.0, 0.0, 0.00872665, 0.0, 0.0, 0.0, 0.00872665)",0.00145644601434,-0.00186145771295,0.000444577075541,"(0.000872665, 0.0, 0.0, 0.0, 0.000872665, 0.0, 0.0, 0.0, 0.000872665)",-0.0084831770137,-0.0138801753335,-0.117667028904,"(0.003, 0.0, 0.0, 0.0, 0.003, 0.0, 0.0, 0.0, 0.003)",,
2022/03/09/18:22:16.806597,8585,1646846536,0.805211484,1646846536.80521,0.00292454547302,0.0203009861358,-0.911404896932,0.410999307595,"(0.00872665, 0.0, 0.0, 0.0, 0.00872665, 0.0, 0.0, 0.0, 0.00872665)",0.000179191119969,-0.00223147682846,0.000378561206162,"(0.000872665, 0.0, 0.0, 0.0, 0.000872665, 0.0, 0.0, 0.0, 0.000872665)",-0.0108377776667,-0.00464283540845,-0.123065178394,"(0.003, 0.0, 0.0, 0.0, 0.003, 0.0, 0.0, 0.0, 0.003)",,
2022/03/09/18:22:16.835476,8586,1646846536,0.835155537,1646846536.83516,0.00292873336701,0.0202945192141,-0.911409078067,0.410990325223,"(0.00872665, 0.0, 0.0, 0.0, 0.00872665, 0.0, 0.0, 0.0, 0.00872665)",-0.00173257663846,0.000492880120873,-0.00322869326919,"(0.000872665, 0.0, 0.0, 0.0, 0.000872665, 0.0, 0.0, 0.0, 0.000872665)",-0.0109850178659,-0.00776689309627,-0.115576064587,"(0.003, 0.0, 0.0, 0.0, 0.003, 0.0, 0.0, 0.0, 0.003)",,
2022/03/09/18:22:16.865028,8587,1646846536,0.864751879,1646846536.86475,0.00291958369796,0.0202999012907,-0.911413202455,0.410980978185,"(0.00872665, 0.0, 0.0, 0.0, 0.00872665, 0.0, 0.0, 0.0, 0.00872665)",-0.000372388400137,0.00126677099615,-0.000783302355558,"(0.000872665, 0.0, 0.0, 0.0, 0.000872665, 0.0, 0.0, 0.0, 0.000872665)",-0.00617246702313,-0.00534589000046,-0.111687081456,"(0.003, 0.0, 0.0, 0.0, 0.003, 0.0, 0.0, 0.0, 0.003)",,
2022/03/09/18:22:16.899179,8588,1646846536,0.894797904,1646846536.8948,0.00291684079372,0.0203039237951,-0.911414471674,0.410977984253,"(0.00872665, 0.0, 0.0, 0.0, 0.00872665, 0.0, 0.0, 0.0, 0.00872665)",0.000815246254206,-0.00486210919917,0.00206201802939,"(0.000872665, 0.0, 0.0, 0.0, 0.000872665, 0.0, 0.0, 0.0, 0.000872665)",-0.00742494061589,-0.00940520983189,-0.122467592955,"(0.003, 0.0, 0.0, 0.0, 0.003, 0.0, 0.0, 0.0, 0.003)",,
2022/03/09/18:22:17.073786,8589,1646846536,1.73434259,1646846537.73434,0.00292275871544,0.0202931798053,-0.911407383475,0.410994191785,"(0.00872665, 0.0, 0.0, 0.0, 0.00872665, 0.0, 0.0, 0.0, 0.00872665)",-4.70420345664E-05,0.00110233668238,0.00104981288314,"(0.000872665, 0.0, 0.0, 0.0, 0.000872665, 0.0, 0.0, 0.0, 0.000872665)",-0.0112610429898,-0.0071346446313,-0.121112793088,"(0.003, 0.0, 0.0, 0.0, 0.003, 0.0, 0.0, 0.0, 0.003)",,
2022/03/09/18:22:17.104459,8590,1646846536,1.103256731,1646846537.10326,0.00291964926365,0.0203176088359,-0.911402789991,0.411003193194,"(0.00872665, 0.0, 0.0, 0.0, 0.00872665, 0.0, 0.0, 0.0, 0.00872665)",0.000220754183829,-0.00174271687865,0.000112905167043,"(0.000872665, 0.0, 0.0, 0.0, 0.000872665, 0.0, 0.0, 0.0, 0.000872665)",-0.0121486868709,-0.00609179371968,-0.115443332791,"(0.003, 0.0, 0.0, 0.0, 0.003, 0.0, 0.0, 0.0, 0.003)",,
2022/03/09/18:22:17.133348,8591,1646846536,1.133026954,1646846537.13303,0.0029143286346,0.0203293744278,-0.911398041356,0.411013179152,"(0.00872665, 0.0, 0.0, 0.0, 0.00872665, 0.0, 0.0, 0.0, 0.00872665)",0.000203197821975,0.000299550592899,0.00198994856328,"(0.000872665, 0.0, 0.0, 0.0, 0.000872665, 0.0, 0.0, 0.0, 0.000872665)",-0.0053115376085,-0.00548960359767,-0.115601792336,"(0.003, 0.0, 0.0, 0.0, 0.003, 0.0, 0.0, 0.0, 0.003)",,
2022/03/09/18:22:17.163812,8592,1646846536,1.163450958,1646846537.16345,0.00291452423797,0.020329764649,-0.91139759196,0.411014154971,"(0.00872665, 0.0, 0.0, 0.0, 0.00872665, 0.0, 0.0, 0.0, 0.00872665)",0.00164727354422,0.000175334513187,-0.000454293098301,"(0.000872665, 0.0, 0.0, 0.0, 0.000872665, 0.0, 0.0, 0.0, 0.000872665)",0.00157925985754,-0.0107216921635,-0.117548330426,"(0.003, 0.0, 0.0, 0.0, 0.003, 0.0, 0.0, 0.0, 0.003)",,
2022/03/09/18:22:17.197025,8593,1646846536,1.196726835,1646846537.19673,0.00292512373129,0.0203328215224,-0.911396187183,0.411017043452,"(0.00872665, 0.0, 0.0, 0.0, 0.00872665, 0.0, 0.0, 0.0, 0.00872665)",0.00232248287648,0.00182290561497,0.000918235629797,"(0.000872665, 0.0, 0.0, 0.0, 0.000872665, 0.0, 0.0, 0.0, 0.000872665)",-0.00473916828632,-0.00556671375409,-0.123090321422,"(0.003, 0.0, 0.0, 0.0, 0.003, 0.0, 0.0, 0.0, 0.003)",,
2022/03/09/18:22:17.222765,8594,1646846536,1.222321415,1646846537.22232,0.00292343487394,0.0203341111939,-0.911395303715,0.411018950679,"(0.00872665, 0.0, 0.0, 0.0, 0.00872665, 0.0, 0.0, 0.0, 0.00872665)",-7.17900693417E-05,0.00169538147748,5.99669292569E-05,"(0.000872665, 0.0, 0.0, 0.0, 0.000872665, 0.0, 0.0, 0.0, 0.000872665)",-0.0145823711157,-0.00573546074331,-0.120995264053,"(0.003, 0.0, 0.0, 0.0, 0.003, 0.0, 0.0, 0.0, 0.003)",,
2022/03/09/18:22:17.253517,8595,1646846536,1.25234458,1646846537.25234,0.00292313604412,0.0203301922001,-0.911393623531,0.411022872293,"(0.00872665, 0.0, 0.0, 0.0, 0.00872665, 0.0, 0.0, 0.0, 0.00872665)",0.0019849347882,-0.000222940929234,0.000947911757976,"(0.000872665, 0.0, 0.0, 0.0, 0.000872665, 0.0, 0.0, 0.0, 0.000872665)",-0.0112081622332,0.00515631230548,-0.111711639762,"(0.003, 0.0, 0.0, 0.0, 0.003, 0.0, 0.0, 0.0, 0.003)",,
2022/03/09/18:22:17.289064,8596,1646846536,1.286024581,1646846537.28602,0.00291603239523,0.0203220599416,-0.911391686817,0.41102761931,"(0.00872665, 0.0, 0.0, 0.0, 0.00872665, 0.0, 0.0, 0.0, 0.00872665)",0.000267265364528,-0.000260470435023,-0.000721987336874,"(0.000872665, 0.0, 0.0, 0.0, 0.000872665, 0.0, 0.0, 0.0, 0.000872665)",-0.000370055660605,-0.00925493638963,-0.120835635066,"(0.003, 0.0, 0.0, 0.0, 0.003, 0.0, 0.0, 0.0, 0.003)",,
2022/03/09/18:22:17.314827,8597,1646846536,1.314465352,1646846537.31447,0.00292671720432,0.020311801566,-0.911388973074,0.411034067692,"(0.00872665, 0.0, 0.0, 0.0, 0.00872665, 0.0, 0.0, 0.0, 0.00872665)",0.00238350732252,0.00102127715945,-0.000722259283066,"(0.000872665, 0.0, 0.0, 0.0, 0.000872665, 0.0, 0.0, 0.0, 0.000872665)",-0.00243737529963,-0.00929387519136,-0.117685155272,"(0.003, 0.0, 0.0, 0.0, 0.003, 0.0, 0.0, 0.0, 0.003)",,
2022/03/09/18:22:17.341952,8598,1646846536,1.341501906,1646846537.3415,0.00294041246137,0.0202929986999,-0.911390118674,0.411032358534,"(0.00872665, 0.0, 0.0, 0.0, 0.00872665, 0.0, 0.0, 0.0, 0.00872665)",0.000172017142177,0.000562343746424,0.00256390310824,"(0.000872665, 0.0, 0.0, 0.0, 0.000872665, 0.0, 0.0, 0.0, 0.000872665)",-0.00587725572288,-0.0136918949895,-0.112582290173,"(0.003, 0.0, 0.0, 0.0, 0.003, 0.0, 0.0, 0.0, 0.003)",,
2022/03/09/18:22:17.371875,8599,1646846536,1.370917505,1646846537.37092,0.00294686169892,0.0202910040082,-0.911389342888,0.411034130982,"(0.00872665, 0.0, 0.0, 0.0, 0.00872665, 0.0, 0.0, 0.0, 0.00872665)",0.00194191560149,-0.00061571598053,0.000814168713987,"(0.000872665, 0.0, 0.0, 0.0, 0.000872665, 0.0, 0.0, 0.0, 0.000872665)",-0.00910875599831,-0.00491003489122,-0.118718358278,"(0.003, 0.0, 0.0, 0.0, 0.003, 0.0, 0.0, 0.0, 0.003)",,
2022/03/09/18:22:17.406682,8600,1646846536,1.404782843,1646846537.40478,0.00294074358833,0.0202944541294,-0.911393712369,0.411024315842,"(0.00872665, 0.0, 0.0, 0.0, 0.00872665, 0.0, 0.0, 0.0, 0.00872665)",-0.00268407445401,-0.00041703786701,4.30070795119E-05,"(0.000872665, 0.0, 0.0, 0.0, 0.000872665, 0.0, 0.0, 0.0, 0.000872665)",-0.00405573841184,-0.00574373820797,-0.115876611471,"(0.003, 0.0, 0.0, 0.0, 0.003, 0.0, 0.0, 0.0, 0.003)",,
2022/03/09/18:22:17.431183,8601,1646846536,1.430811027,1646846537.43081,0.00293522796437,0.0203058939826,-0.911390911351,0.411030001111,"(0.00872665, 0.0, 0.0, 0.0, 0.00872665, 0.0, 0.0, 0.0, 0.00872665)",-0.00116977095604,-5.55720180273E-05,0.00126423779875,"(0.000872665, 0.0, 0.0, 0.0, 0.000872665, 0.0, 0.0, 0.0, 0.000872665)",-0.0142863558233,-0.00455050421879,-0.11304071188,"(0.003, 0.0, 0.0, 0.0, 0.003, 0.0, 0.0, 0.0, 0.003)",,
2022/03/09/18:22:17.461094,8602,1646846536,1.46071174,1646846537.46071,0.00293488435275,0.0203286840064,-0.911387722992,0.411035946653,"(0.00872665, 0.0, 0.0, 0.0, 0.00872665, 0.0, 0.0, 0.0, 0.00872665)",0.00222295289859,-0.00193719286472,0.000256624538451,"(0.000872665, 0.0, 0.0, 0.0, 0.000872665, 0.0, 0.0, 0.0, 0.000872665)",-0.0057944810763,-0.00362222218886,-0.111861328483,"(0.003, 0.0, 0.0, 0.0, 0.003, 0.0, 0.0, 0.0, 0.003)",,
2022/03/09/18:22:17.490438,8603,1646846536,1.48996076,1646846537.48996,0.00295051784612,0.0203324640658,-0.911387063536,0.411037109966,"(0.00872665, 0.0, 0.0, 0.0, 0.00872665, 0.0, 0.0, 0.0, 0.00872665)",0.00112372124568,0.00099200475961,0.00327491597272,"(0.000872665, 0.0, 0.0, 0.0, 0.000872665, 0.0, 0.0, 0.0, 0.000872665)",-0.00465577237308,-0.00795210365206,-0.122344801426,"(0.003, 0.0, 0.0, 0.0, 0.003, 0.0, 0.0, 0.0, 0.003)",,
2022/03/09/18:22:17.528023,8604,1646846536,1.526577569,1646846537.52658,0.0029440223594,0.0203149419919,-0.911382871769,0.411047317118,"(0.00872665, 0.0, 0.0, 0.0, 0.00872665, 0.0, 0.0, 0.0, 0.00872665)",-0.0015882300213,0.000653851777315,-6.14682212472E-05,"(0.000872665, 0.0, 0.0, 0.0, 0.000872665, 0.0, 0.0, 0.0, 0.000872665)",0.0019667475298,-0.00700821686536,-0.115743294954,"(0.003, 0.0, 0.0, 0.0, 0.003, 0.0, 0.0, 0.0, 0.003)",,
2022/03/09/18:22:17.551520,8605,1646846536,1.550134494,1646846537.55013,0.00295010935129,0.0203043395565,-0.911380256075,0.411053596855,"(0.00872665, 0.0, 0.0, 0.0, 0.00872665, 0.0, 0.0, 0.0, 0.00872665)",-7.22520053387E-06,-0.00177978351712,0.0018766974099,"(0.000872665, 0.0, 0.0, 0.0, 0.000872665, 0.0, 0.0, 0.0, 0.000872665)",-0.00111747600138,-0.00309063719586,-0.11483756125,"(0.003, 0.0, 0.0, 0.0, 0.003, 0.0, 0.0, 0.0, 0.003)",,
2022/03/09/18:22:17.581342,8606,1646846536,1.580305959,1646846537.58031,0.00294751921972,0.0202995386681,-0.911378464492,0.411057824789,"(0.00872665, 0.0, 0.0, 0.0, 0.00872665, 0.0, 0.0, 0.0, 0.00872665)",0.000632206443697,0.0011828308925,-0.00091190636158,"(0.000872665, 0.0, 0.0, 0.0, 0.000872665, 0.0, 0.0, 0.0, 0.000872665)",-0.00597340587527,-0.0160473179072,-0.119174441099,"(0.003, 0.0, 0.0, 0.0, 0.003, 0.0, 0.0, 0.0, 0.003)",,
2022/03/09/18:22:17.610153,8607,1646846536,1.609756618,1646846537.60976,0.00294935202355,0.0202918694512,-0.911377580729,0.411060149737,"(0.00872665, 0.0, 0.0, 0.0, 0.00872665, 0.0, 0.0, 0.0, 0.00872665)",3.7613324821E-05,0.000577258877456,0.000195009633899,"(0.000872665, 0.0, 0.0, 0.0, 0.000872665, 0.0, 0.0, 0.0, 0.000872665)",-0.013310857527,-0.0148780209571,-0.120665481091,"(0.003, 0.0, 0.0, 0.0, 0.003, 0.0, 0.0, 0.0, 0.003)",,
2022/03/09/18:22:17.643201,8608,1646846536,1.642725714,1646846537.64273,0.00295476292317,0.0202961525639,-0.911382516496,0.411048955955,"(0.00872665, 0.0, 0.0, 0.0, 0.00872665, 0.0, 0.0, 0.0, 0.00872665)",0.00231615407392,-0.00155882537365,6.8059656769E-05,"(0.000872665, 0.0, 0.0, 0.0, 0.000872665, 0.0, 0.0, 0.0, 0.000872665)",-0.0131256469712,-0.002027339302,-0.109891986251,"(0.003, 0.0, 0.0, 0.0, 0.003, 0.0, 0.0, 0.0, 0.003)",,
2022/03/09/18:22:17.669746,8609,1646846536,1.669221882,1646846537.66922,0.00296525597063,0.020312212155,-0.911382500963,0.411048121554,"(0.00872665, 0.0, 0.0, 0.0, 0.00872665, 0.0, 0.0, 0.0, 0.00872665)",0.00042229052633,-0.00016791280359,0.000783378724009,"(0.000872665, 0.0, 0.0, 0.0, 0.000872665, 0.0, 0.0, 0.0, 0.000872665)",-0.00828269060701,-0.0100931164809,-0.117689833045,"(0.003, 0.0, 0.0, 0.0, 0.003, 0.0, 0.0, 0.0, 0.003)",,
2022/03/09/18:22:17.699455,8610,1646846536,1.69907506,1646846537.69908,0.00298112848933,0.0203170601815,-0.911381879361,0.411049145372,"(0.00872665, 0.0, 0.0, 0.0, 0.00872665, 0.0, 0.0, 0.0, 0.00872665)",0.00445436872542,0.000689033418894,0.0016645626165,"(0.000872665, 0.0, 0.0, 0.0, 0.000872665, 0.0, 0.0, 0.0, 0.000872665)",-0.00982120268047,-0.0088716879487,-0.108714357018,"(0.003, 0.0, 0.0, 0.0, 0.003, 0.0, 0.0, 0.0, 0.003)",,
2022/03/09/18:22:17.729132,8611,1646846536,1.728880161,1646846537.72888,0.00298849957745,0.0203341370358,-0.911382927849,0.411045922699,"(0.00872665, 0.0, 0.0, 0.0, 0.00872665, 0.0, 0.0, 0.0, 0.00872665)",-0.00159369688481,-0.00137159600854,-0.000354371033609,"(0.000872665, 0.0, 0.0, 0.0, 0.000872665, 0.0, 0.0, 0.0, 0.000872665)",-0.0104728017747,-0.00216675885022,-0.129684811234,"(0.003, 0.0, 0.0, 0.0, 0.003, 0.0, 0.0, 0.0, 0.003)",,
2022/03/09/18:22:17.760543,8612,1646846536,1.760064368,1646846537.76006,0.00298022141134,0.0203189259222,-0.91138501354,0.411042110524,"(0.00872665, 0.0, 0.0, 0.0, 0.00872665, 0.0, 0.0, 0.0, 0.00872665)",0.000918195582926,-0.000740231946111,0.000507656019181,"(0.000872665, 0.0, 0.0, 0.0, 0.000872665, 0.0, 0.0, 0.0, 0.000872665)",-0.0106770157814,-0.00707922399044,-0.126079418063,"(0.003, 0.0, 0.0, 0.0, 0.003, 0.0, 0.0, 0.0, 0.003)",,
2022/03/09/18:22:17.789499,8613,1646846536,1.788440466,1646846537.78844,0.00298042273449,0.0203160965603,-0.911382669013,0.411047447289,"(0.00872665, 0.0, 0.0, 0.0, 0.00872665, 0.0, 0.0, 0.0, 0.00872665)",-0.000253641977906,0.00205211434513,-0.000918189063668,"(0.000872665, 0.0, 0.0, 0.0, 0.000872665, 0.0, 0.0, 0.0, 0.000872665)",-0.0113292361423,0.000986754186451,-0.121436728835,"(0.003, 0.0, 0.0, 0.0, 0.003, 0.0, 0.0, 0.0, 0.003)",,
2022/03/09/18:22:17.818636,8614,1646846536,1.818260263,1646846537.81826,0.00298193539796,0.0203134953247,-0.911381215227,0.411050788224,"(0.00872665, 0.0, 0.0, 0.0, 0.00872665, 0.0, 0.0, 0.0, 0.00872665)",-0.00196860078722,0.000676580704749,0.00091116130352,"(0.000872665, 0.0, 0.0, 0.0, 0.000872665, 0.0, 0.0, 0.0, 0.000872665)",-0.00899367548525,-0.00424504201859,-0.124428749084,"(0.003, 0.0, 0.0, 0.0, 0.003, 0.0, 0.0, 0.0, 0.003)",,
2022/03/09/18:22:17.850725,8615,1646846536,1.850229353,1646846537.85023,0.00299156199621,0.0203015398513,-0.91137960654,0.41105487568,"(0.00872665, 0.0, 0.0, 0.0, 0.00872665, 0.0, 0.0, 0.0, 0.00872665)",-0.00115412753075,-0.00011922698468,0.00038848631084,"(0.000872665, 0.0, 0.0, 0.0, 0.000872665, 0.0, 0.0, 0.0, 0.000872665)",-0.00883689701557,-0.0047665405646,-0.117235504389,"(0.003, 0.0, 0.0, 0.0, 0.003, 0.0, 0.0, 0.0, 0.003)",,
2022/03/09/18:22:17.879148,8616,1646846536,1.878892445,1646846537.87889,0.00298414025837,0.0203100016774,-0.911375182167,0.411064321085,"(0.00872665, 0.0, 0.0, 0.0, 0.00872665, 0.0, 0.0, 0.0, 0.00872665)",0.000168401747942,0.00118485279381,-0.00052224425599,"(0.000872665, 0.0, 0.0, 0.0, 0.000872665, 0.0, 0.0, 0.0, 0.000872665)",-0.00308959566057,-0.012760999985,-0.120684192181,"(0.003, 0.0, 0.0, 0.0, 0.003, 0.0, 0.0, 0.0, 0.003)",,
2022/03/09/18:22:17.908050,8617,1646846536,1.907747745,1646846537.90775,0.00299364320098,0.0203182845274,-0.911378350361,0.411056818344,"(0.00872665, 0.0, 0.0, 0.0, 0.00872665, 0.0, 0.0, 0.0, 0.00872665)",0.000436211936176,-0.000415182672441,0.000568657182157,"(0.000872665, 0.0, 0.0, 0.0, 0.000872665, 0.0, 0.0, 0.0, 0.000872665)",-0.0133449541032,-0.0126767818071,-0.114255178571,"(0.003, 0.0, 0.0, 0.0, 0.003, 0.0, 0.0, 0.0, 0.003)",,
2022/03/09/18:22:17.938053,8618,1646846536,1.937716575,1646846537.93772,0.00298654677062,0.0203227838455,-0.911378014782,0.411057391573,"(0.00872665, 0.0, 0.0, 0.0, 0.00872665, 0.0, 0.0, 0.0, 0.00872665)",0.000283044762909,-0.00186866521835,-0.000796169042587,"(0.000872665, 0.0, 0.0, 0.0, 0.000872665, 0.0, 0.0, 0.0, 0.000872665)",-0.000184479653835,-0.00588147668168,-0.115005961061,"(0.003, 0.0, 0.0, 0.0, 0.003, 0.0, 0.0, 0.0, 0.003)",,
2022/03/09/18:22:17.966703,8619,1646846536,1.966401054,1646846537.9664,0.0030015379622,0.0203350957374,-0.911374192452,0.411065148101,"(0.00872665, 0.0, 0.0, 0.0, 0.00872665, 0.0, 0.0, 0.0, 0.00872665)",-0.00035376381129,-0.000952849164605,-0.00223645986989,"(0.000872665, 0.0, 0.0, 0.0, 0.000872665, 0.0, 0.0, 0.0, 0.000872665)",-0.0114635393769,-0.00730752121657,-0.106934464574,"(0.003, 0.0, 0.0, 0.0, 0.003, 0.0, 0.0, 0.0, 0.003)",,
2022/03/09/18:22:17.999748,8620,1646846536,1.999364213,1646846537.99936,0.0029983554559,0.0203301147455,-0.911381123704,0.411050050061,"(0.00872665, 0.0, 0.0, 0.0, 0.00872665, 0.0, 0.0, 0.0, 0.00872665)",-0.000602553598583,-0.00178949162364,-0.00058707036078,"(0.000872665, 0.0, 0.0, 0.0, 0.000872665, 0.0, 0.0, 0.0, 0.000872665)",-0.0068829768151,0.00336737494916,-0.122198621035,"(0.003, 0.0, 0.0, 0.0, 0.003, 0.0, 0.0, 0.0, 0.003)",,
2022/03/09/18:22:18.027348,8621,1646846536,2.26901019,1646846538.26901,0.00300378147599,0.0203479669517,-0.911374302092,0.411064251698,"(0.00872665, 0.0, 0.0, 0.0, 0.00872665, 0.0, 0.0, 0.0, 0.00872665)",-0.00123929325491,-0.000361518003047,-0.00168946292251,"(0.000872665, 0.0, 0.0, 0.0, 0.000872665, 0.0, 0.0, 0.0, 0.000872665)",-0.000773184634745,-0.00910988889635,-0.114429425597,"(0.003, 0.0, 0.0, 0.0, 0.003, 0.0, 0.0, 0.0, 0.003)",,
2022/03/09/18:22:18.058529,8622,1646846536,2.56878136,1646846538.56878,0.00300497188548,0.0203539613515,-0.911375470578,0.411061355555,"(0.00872665, 0.0, 0.0, 0.0, 0.00872665, 0.0, 0.0, 0.0, 0.00872665)",0.000867837108672,-0.00126961059868,0.00106353405863,"(0.000872665, 0.0, 0.0, 0.0, 0.000872665, 0.0, 0.0, 0.0, 0.000872665)",-0.0138475953788,-0.00125755336136,-0.123416011333,"(0.003, 0.0, 0.0, 0.0, 0.003, 0.0, 0.0, 0.0, 0.003)",,
2022/03/09/18:22:18.086200,8623,1646846536,2.85723269,1646846538.85723,0.00299878523323,0.0203476480634,-0.911368738884,0.411076637977,"(0.00872665, 0.0, 0.0, 0.0, 0.00872665, 0.0, 0.0, 0.0, 0.00872665)",-0.000182574614882,0.000252705998719,0.00182815315202,"(0.000872665, 0.0, 0.0, 0.0, 0.000872665, 0.0, 0.0, 0.0, 0.000872665)",-0.00882476404309,-0.0102450344525,-0.11742261529,"(0.003, 0.0, 0.0, 0.0, 0.003, 0.0, 0.0, 0.0, 0.003)",,
2022/03/09/18:22:18.121531,8624,1646846536,2.120232281,1646846538.12023,0.00300025450819,0.0203394148167,-0.911362404362,0.411091078222,"(0.00872665, 0.0, 0.0, 0.0, 0.00872665, 0.0, 0.0, 0.0, 0.00872665)",0.00186642399058,0.000316594727337,-0.000997565686703,"(0.000872665, 0.0, 0.0, 0.0, 0.000872665, 0.0, 0.0, 0.0, 0.000872665)",-0.00958596188575,-0.00459159918129,-0.120709335208,"(0.003, 0.0, 0.0, 0.0, 0.003, 0.0, 0.0, 0.0, 0.003)",,
2022/03/09/18:22:18.147694,8625,1646846536,2.147351143,1646846538.14735,0.00300206689445,0.02034151832,-0.911363631712,0.411088239944,"(0.00872665, 0.0, 0.0, 0.0, 0.00872665, 0.0, 0.0, 0.0, 0.00872665)",0.000547053292394,0.00105885323137,-0.00304583739489,"(0.000872665, 0.0, 0.0, 0.0, 0.000872665, 0.0, 0.0, 0.0, 0.000872665)",-0.00626916535199,-0.000352002382278,-0.116370116472,"(0.003, 0.0, 0.0, 0.0, 0.003, 0.0, 0.0, 0.0, 0.003)",,
2022/03/09/18:22:18.176057,8626,1646846536,2.175771704,1646846538.17577,0.00300251293429,0.0203324290257,-0.911372160366,0.411069778207,"(0.00872665, 0.0, 0.0, 0.0, 0.00872665, 0.0, 0.0, 0.0, 0.00872665)",0.000441826414317,-0.000163950026035,0.000367743894458,"(0.000872665, 0.0, 0.0, 0.0, 0.000872665, 0.0, 0.0, 0.0, 0.000872665)",-0.00702955920249,-0.0153930692933,-0.105435823202,"(0.003, 0.0, 0.0, 0.0, 0.003, 0.0, 0.0, 0.0, 0.003)",,
2022/03/09/18:22:18.205827,8627,1646846536,2.205411768,1646846538.20541,0.00300481413777,0.02032434237,-0.91137056966,0.411073687989,"(0.00872665, 0.0, 0.0, 0.0, 0.00872665, 0.0, 0.0, 0.0, 0.00872665)",0.00193374976516,0.000735299661756,0.000851172953844,"(0.000872665, 0.0, 0.0, 0.0, 0.000872665, 0.0, 0.0, 0.0, 0.000872665)",-0.0112351325154,-0.000147404652089,-0.114710091949,"(0.003, 0.0, 0.0, 0.0, 0.003, 0.0, 0.0, 0.0, 0.003)",,
2022/03/09/18:22:18.240357,8628,1646846536,2.238750123,1646846538.23875,0.0030118579584,0.0203268934558,-0.911370586063,0.411073473934,"(0.00872665, 0.0, 0.0, 0.0, 0.00872665, 0.0, 0.0, 0.0, 0.00872665)",0.00200708629563,0.00122802890837,0.00113380746916,"(0.000872665, 0.0, 0.0, 0.0, 0.000872665, 0.0, 0.0, 0.0, 0.000872665)",-0.0124438616261,-0.00239600624889,-0.118155856133,"(0.003, 0.0, 0.0, 0.0, 0.003, 0.0, 0.0, 0.0, 0.003)",,
2022/03/09/18:22:18.265543,8629,1646846536,2.265161208,1646846538.26516,0.00301215700342,0.0203287967549,-0.911369965097,0.411074754336,"(0.00872665, 0.0, 0.0, 0.0, 0.00872665, 0.0, 0.0, 0.0, 0.00872665)",-0.00103601813316,-0.00152436830103,-5.6161545217E-05,"(0.000872665, 0.0, 0.0, 0.0, 0.000872665, 0.0, 0.0, 0.0, 0.000872665)",-0.00837094701827,-0.00207545092329,-0.117558855414,"(0.003, 0.0, 0.0, 0.0, 0.003, 0.0, 0.0, 0.0, 0.003)",,
2022/03/09/18:22:18.295421,8630,1646846536,2.295111575,1646846538.29511,0.00301207583211,0.0203246096608,-0.911373128807,0.411067947825,"(0.00872665, 0.0, 0.0, 0.0, 0.00872665, 0.0, 0.0, 0.0, 0.00872665)",-0.0017461841926,-0.000246782787144,0.000432804226875,"(0.000872665, 0.0, 0.0, 0.0, 0.000872665, 0.0, 0.0, 0.0, 0.000872665)",-0.0138322829828,-0.00136475840583,-0.117405658364,"(0.003, 0.0, 0.0, 0.0, 0.003, 0.0, 0.0, 0.0, 0.003)",,
2022/03/09/18:22:18.325119,8631,1646846536,2.324770793,1646846538.32477,0.0029961911372,0.02033199115,-0.911366843128,0.411081634499,"(0.00872665, 0.0, 0.0, 0.0, 0.00872665, 0.0, 0.0, 0.0, 0.00872665)",-0.000841363333166,-0.000507302582264,0.00133668258786,"(0.000872665, 0.0, 0.0, 0.0, 0.000872665, 0.0, 0.0, 0.0, 0.000872665)",-0.00579170364887,0.00185868367553,-0.125343253613,"(0.003, 0.0, 0.0, 0.0, 0.003, 0.0, 0.0, 0.0, 0.003)",,
2022/03/09/18:22:18.356407,8632,1646846536,2.354789244,1646846538.35479,0.0029805265399,0.0203323192168,-0.911366457758,0.411082586508,"(0.00872665, 0.0, 0.0, 0.0, 0.00872665, 0.0, 0.0, 0.0, 0.00872665)",-4.85880300403E-05,-0.00048925448209,0.00116470223293,"(0.000872665, 0.0, 0.0, 0.0, 0.000872665, 0.0, 0.0, 0.0, 0.000872665)",-0.00730624213815,-0.0139860282093,-0.128185585141,"(0.003, 0.0, 0.0, 0.0, 0.003, 0.0, 0.0, 0.0, 0.003)",,
2022/03/09/18:22:18.384704,8633,1646846536,2.384372621,1646846538.38437,0.00298175735264,0.0203291739736,-0.911366401835,0.411082857116,"(0.00872665, 0.0, 0.0, 0.0, 0.00872665, 0.0, 0.0, 0.0, 0.00872665)",-0.00278491899371,-0.000382035970688,0.00130974967033,"(0.000872665, 0.0, 0.0, 0.0, 0.000872665, 0.0, 0.0, 0.0, 0.000872665)",-0.00707308441401,0.000380799919367,-0.114711261392,"(0.003, 0.0, 0.0, 0.0, 0.003, 0.0, 0.0, 0.0, 0.003)",,
2022/03/09/18:22:18.414406,8634,1646846536,2.414102644,1646846538.4141,0.00297176145336,0.0203496277239,-0.911362578045,0.411090394713,"(0.00872665, 0.0, 0.0, 0.0, 0.00872665, 0.0, 0.0, 0.0, 0.00872665)",-0.00165084935725,0.00054285954684,-0.00048175547272,"(0.000872665, 0.0, 0.0, 0.0, 0.000872665, 0.0, 0.0, 0.0, 0.000872665)",-0.0169572177529,-0.0105574402213,-0.12700093925,"(0.003, 0.0, 0.0, 0.0, 0.003, 0.0, 0.0, 0.0, 0.003)",,
2022/03/09/18:22:18.460957,8635,1646846536,2.460586384,1646846538.46059,0.00297314760258,0.0203485894409,-0.911354139121,0.411109144155,"(0.00872665, 0.0, 0.0, 0.0, 0.00872665, 0.0, 0.0, 0.0, 0.00872665)",-0.000440509989858,0.000490034930408,-0.000287258066237,"(0.000872665, 0.0, 0.0, 0.0, 0.000872665, 0.0, 0.0, 0.0, 0.000872665)",-0.00307040948421,-0.0129290708899,-0.1123308599,"(0.003, 0.0, 0.0, 0.0, 0.003, 0.0, 0.0, 0.0, 0.003)",,
2022/03/09/18:22:18.475166,8636,1646846536,2.474193935,1646846538.47419,0.0029259660416,0.0202833557232,-0.91126060719,0.411319984911,"(0.00872665, 0.0, 0.0, 0.0, 0.00872665, 0.0, 0.0, 0.0, 0.00872665)",-0.0150821758434,0.011830736883,0.049737624824,"(0.000872665, 0.0, 0.0, 0.0, 0.000872665, 0.0, 0.0, 0.0, 0.000872665)",0.163596103862,0.246687103081,-0.103890988827,"(0.003, 0.0, 0.0, 0.0, 0.003, 0.0, 0.0, 0.0, 0.003)",,
2022/03/09/18:22:18.503836,8637,1646846536,2.503433497,1646846538.50343,0.0026359170021,0.0199395869796,-0.910867475763,0.41220857149,"(0.00872665, 0.0, 0.0, 0.0, 0.00872665, 0.0, 0.0, 0.0, 0.00872665)",-0.027758166194,0.0163655057549,0.0593062341213,"(0.000872665, 0.0, 0.0, 0.0, 0.000872665, 0.0, 0.0, 0.0, 0.000872665)",0.22335822925,0.452360812314,-0.120353239775,"(0.003, 0.0, 0.0, 0.0, 0.003, 0.0, 0.0, 0.0, 0.003)",,
2022/03/09/18:22:18.536049,8638,1646846536,2.535687911,1646846538.53569,0.00211949024201,0.0195790040742,-0.910792684363,0.412394054845,"(0.00872665, 0.0, 0.0, 0.0, 0.00872665, 0.0, 0.0, 0.0, 0.00872665)",-0.0531979650259,0.000526399351656,-0.0362310521305,"(0.000872665, 0.0, 0.0, 0.0, 0.000872665, 0.0, 0.0, 0.0, 0.000872665)",-0.412428312823,0.703735646456,-0.122420230508,"(0.003, 0.0, 0.0, 0.0, 0.003, 0.0, 0.0, 0.0, 0.003)",,
2022/03/09/18:22:18.568098,8639,1646846536,2.566918655,1646846538.56692,0.00119375593956,0.0192493837028,-0.911352380281,0.411174993318,"(0.00872665, 0.0, 0.0, 0.0, 0.00872665, 0.0, 0.0, 0.0, 0.00872665)",-0.0872528776526,-0.0105366380885,-0.12548610568,"(0.000872665, 0.0, 0.0, 0.0, 0.000872665, 0.0, 0.0, 0.0, 0.000872665)",-0.50474254556,1.0243212314,-0.0837888461351,"(0.003, 0.0, 0.0, 0.0, 0.003, 0.0, 0.0, 0.0, 0.003)",,
2022/03/09/18:22:18.593381,8640,1646846536,2.5929118,1646846538.59291,-0.000227727230267,0.0187071293966,-0.912148009796,0.409433754929,"(0.00872665, 0.0, 0.0, 0.0, 0.00872665, 0.0, 0.0, 0.0, 0.00872665)",-0.132272228599,-0.00068493373692,-0.11055496335,"(0.000872665, 0.0, 0.0, 0.0, 0.000872665, 0.0, 0.0, 0.0, 0.000872665)",0.150554839522,1.50791797936,-0.15745382309,"(0.003, 0.0, 0.0, 0.0, 0.003, 0.0, 0.0, 0.0, 0.003)",,
2022/03/09/18:22:18.623750,8641,1646846536,2.622940426,1646846538.62294,-0.00230010914376,0.0176914758498,-0.912741675866,0.408147466387,"(0.00872665, 0.0, 0.0, 0.0, 0.00872665, 0.0, 0.0, 0.0, 0.00872665)",-0.183502271771,0.011547264643,-0.0547528192401,"(0.000872665, 0.0, 0.0, 0.0, 0.000872665, 0.0, 0.0, 0.0, 0.000872665)",0.419062819518,1.78238189667,-0.0731550997496,"(0.003, 0.0, 0.0, 0.0, 0.003, 0.0, 0.0, 0.0, 0.003)",,
2022/03/09/18:22:18.653250,8642,1646846536,2.652080125,1646846538.65208,-0.00505962493524,0.016235766479,-0.912905106015,0.407817443833,"(0.00872665, 0.0, 0.0, 0.0, 0.00872665, 0.0, 0.0, 0.0, 0.00872665)",-0.2348408252,0.0109901307151,0.0243318788707,"(0.000872665, 0.0, 0.0, 0.0, 0.000872665, 0.0, 0.0, 0.0, 0.000872665)",0.125463377349,1.7819597277,-0.169283909798,"(0.003, 0.0, 0.0, 0.0, 0.003, 0.0, 0.0, 0.0, 0.003)",,
2022/03/09/18:22:18.689716,8643,1646846536,2.686731346,1646846538.68673,-0.00866199942253,0.0145512008169,-0.912634850309,0.408424855172,"(0.00872665, 0.0, 0.0, 0.0, 0.00872665, 0.0, 0.0, 0.0, 0.00872665)",-0.290633112192,-0.00606345385313,0.0854220017791,"(0.000872665, 0.0, 0.0, 0.0, 0.000872665, 0.0, 0.0, 0.0, 0.000872665)",-0.363545041792,2.08438663825,-0.17148129344,"(0.003, 0.0, 0.0, 0.0, 0.003, 0.0, 0.0, 0.0, 0.003)",,
2022/03/09/18:22:18.713227,8644,1646846536,2.712370931,1646846538.71237,-0.0132245327021,0.0127410417751,-0.912139540287,0.409468236418,"(0.00872665, 0.0, 0.0, 0.0, 0.00872665, 0.0, 0.0, 0.0, 0.00872665)",-0.355417996645,-0.0286770910025,0.0902626290917,"(0.000872665, 0.0, 0.0, 0.0, 0.000872665, 0.0, 0.0, 0.0, 0.000872665)",-0.535732751973,2.39587746397,-0.142383794188,"(0.003, 0.0, 0.0, 0.0, 0.003, 0.0, 0.0, 0.0, 0.003)",,
2022/03/09/18:22:18.742329,8645,1646846536,2.741961056,1646846538.74196,-0.0187262410279,0.0107512492922,-0.911742620051,0.410194019114,"(0.00872665, 0.0, 0.0, 0.0, 0.00872665, 0.0, 0.0, 0.0, 0.00872665)",-0.413664758205,-0.0346274524927,0.065947368741,"(0.000872665, 0.0, 0.0, 0.0, 0.000872665, 0.0, 0.0, 0.0, 0.000872665)",-0.449870336987,2.23727378592,-0.292359028459,"(0.003, 0.0, 0.0, 0.0, 0.003, 0.0, 0.0, 0.0, 0.003)",,
2022/03/09/18:22:18.771314,8646,1646846536,2.770956987,1646846538.77096,-0.0247492700292,0.00840370785891,-0.911211432076,0.411108960473,"(0.00872665, 0.0, 0.0, 0.0, 0.00872665, 0.0, 0.0, 0.0, 0.00872665)",-0.445065557957,-0.0156130865216,0.138774991035,"(0.000872665, 0.0, 0.0, 0.0, 0.000872665, 0.0, 0.0, 0.0, 0.000872665)",0.230864628889,1.61752345204,-0.192730075121,"(0.003, 0.0, 0.0, 0.0, 0.003, 0.0, 0.0, 0.0, 0.003)",,
2022/03/09/18:22:18.813801,8647,1646846536,2.812210117,1646846538.81221,-0.0310658482306,0.00542226375226,-0.909749566156,0.413958015998,"(0.00872665, 0.0, 0.0, 0.0, 0.00872665, 0.0, 0.0, 0.0, 0.00872665)",-0.469347238541,-0.00150778796524,0.356099903584,"(0.000872665, 0.0, 0.0, 0.0, 0.000872665, 0.0, 0.0, 0.0, 0.000872665)",0.519141679555,1.36603236794,-0.355413063169,"(0.003, 0.0, 0.0, 0.0, 0.003, 0.0, 0.0, 0.0, 0.003)",,
2022/03/09/18:22:18.843371,8648,1646846536,2.841694048,1646846538.84169,-0.037527036757,0.00168237283254,-0.906748468551,0.419995364158,"(0.00872665, 0.0, 0.0, 0.0, 0.00872665, 0.0, 0.0, 0.0, 0.00872665)",-0.477590560913,0.00567550491542,0.587096214294,"(0.000872665, 0.0, 0.0, 0.0, 0.000872665, 0.0, 0.0, 0.0, 0.000872665)",0.0564018036425,1.01452188268,-0.292934394479,"(0.003, 0.0, 0.0, 0.0, 0.003, 0.0, 0.0, 0.0, 0.003)",,
2022/03/09/18:22:18.861380,8649,1646846536,2.860990308,1646846538.86099,-0.0439444259412,-0.00251211505737,-0.902582808587,0.428260260063,"(0.00872665, 0.0, 0.0, 0.0, 0.00872665, 0.0, 0.0, 0.0, 0.00872665)",-0.47696313262,-0.00649264175445,0.65857899189,"(0.000872665, 0.0, 0.0, 0.0, 0.000872665, 0.0, 0.0, 0.0, 0.000872665)",-0.363663776815,0.862387929484,-0.312990344167,"(0.003, 0.0, 0.0, 0.0, 0.003, 0.0, 0.0, 0.0, 0.003)",,
2022/03/09/18:22:18.890732,8650,1646846536,2.890247671,1646846538.89025,-0.050335248927,-0.00656359982129,-0.898741194193,0.435531339553,"(0.00872665, 0.0, 0.0, 0.0, 0.00872665, 0.0, 0.0, 0.0, 0.00872665)",-0.4791854918,-0.0287093892694,0.465094596148,"(0.000872665, 0.0, 0.0, 0.0, 0.000872665, 0.0, 0.0, 0.0, 0.000872665)",-0.87848706834,0.80514887765,-0.347986514568,"(0.003, 0.0, 0.0, 0.0, 0.003, 0.0, 0.0, 0.0, 0.003)",,
2022/03/09/18:22:18.921485,8651,1646846536,2.921048336,1646846538.92105,-0.0567328731717,-0.0100464069239,-0.896251024463,0.4397892131,"(0.00872665, 0.0, 0.0, 0.0, 0.00872665, 0.0, 0.0, 0.0, 0.00872665)",-0.467839151621,-0.0329474210739,0.268787562847,"(0.000872665, 0.0, 0.0, 0.0, 0.000872665, 0.0, 0.0, 0.0, 0.000872665)",-0.555925636142,0.646696130857,-0.305829259157,"(0.003, 0.0, 0.0, 0.0, 0.003, 0.0, 0.0, 0.0, 0.003)",,
2022/03/09/18:22:18.953446,8652,1646846536,2.953087312,1646846538.95309,-0.0630218358698,-0.0131976165886,-0.894502250697,0.442402299517,"(0.00872665, 0.0, 0.0, 0.0, 0.00872665, 0.0, 0.0, 0.0, 0.00872665)",-0.45238789916,-0.0364058315754,0.207943543792,"(0.000872665, 0.0, 0.0, 0.0, 0.000872665, 0.0, 0.0, 0.0, 0.000872665)",-0.186202243567,0.227192102373,-0.401976195574,"(0.003, 0.0, 0.0, 0.0, 0.003, 0.0, 0.0, 0.0, 0.003)",,
2022/03/09/18:22:18.980774,8653,1646846536,2.980325921,1646846538.98033,-0.069005016385,-0.0161728666883,-0.892945385738,0.44455065424,"(0.00872665, 0.0, 0.0, 0.0, 0.00872665, 0.0, 0.0, 0.0, 0.00872665)",-0.42884516716,-0.0357558019459,0.181302055717,"(0.000872665, 0.0, 0.0, 0.0, 0.000872665, 0.0, 0.0, 0.0, 0.000872665)",-0.26840463046,-0.233323931247,-0.328328175545,"(0.003, 0.0, 0.0, 0.0, 0.003, 0.0, 0.0, 0.0, 0.003)",,
2022/03/09/18:22:19.010304,8654,1646846536,3.9818264,1646846539.98183,-0.0746415575498,-0.0187215345155,-0.891857343203,0.44572258346,"(0.00872665, 0.0, 0.0, 0.0, 0.00872665, 0.0, 0.0, 0.0, 0.00872665)",-0.392978221178,-0.0429659634829,0.0432300567627,"(0.000872665, 0.0, 0.0, 0.0, 0.000872665, 0.0, 0.0, 0.0, 0.000872665)",-0.421795186847,-0.623328683674,-0.393110647202,"(0.003, 0.0, 0.0, 0.0, 0.003, 0.0, 0.0, 0.0, 0.003)",,
2022/03/09/18:22:19.042330,8655,1646846536,3.40929283,1646846539.40929,-0.0798255787617,-0.0200949938162,-0.892252555994,0.443970094173,"(0.00872665, 0.0, 0.0, 0.0, 0.00872665, 0.0, 0.0, 0.0, 0.00872665)",-0.318759262562,-0.053648609668,-0.236286059022,"(0.000872665, 0.0, 0.0, 0.0, 0.000872665, 0.0, 0.0, 0.0, 0.000872665)",-0.645291118026,-1.75284366354,-0.337717634439,"(0.003, 0.0, 0.0, 0.0, 0.003, 0.0, 0.0, 0.0, 0.003)",,
2022/03/09/18:22:19.072499,8656,1646846536,3.71910065,1646846539.7191,-0.0841052563152,-0.0199486847818,-0.894423727778,0.438787592148,"(0.00872665, 0.0, 0.0, 0.0, 0.00872665, 0.0, 0.0, 0.0, 0.00872665)",-0.230505153537,-0.0419051647186,-0.452467501163,"(0.000872665, 0.0, 0.0, 0.0, 0.000872665, 0.0, 0.0, 0.0, 0.000872665)",-0.00756541997194,-2.70042925268,-0.310652627349,"(0.003, 0.0, 0.0, 0.0, 0.003, 0.0, 0.0, 0.0, 0.003)",,
2022/03/09/18:22:19.099837,8657,1646846536,3.99175428,1646846539.99175,-0.0873834683426,-0.0185774566885,-0.897875962943,0.431089042696,"(0.00872665, 0.0, 0.0, 0.0, 0.00872665, 0.0, 0.0, 0.0, 0.00872665)",-0.156700760126,-0.0349359512329,-0.6138677001,"(0.000872665, 0.0, 0.0, 0.0, 0.000872665, 0.0, 0.0, 0.0, 0.000872665)",0.0771152727306,-2.61424597174,-0.340255326033,"(0.003, 0.0, 0.0, 0.0, 0.003, 0.0, 0.0, 0.0, 0.003)",,
2022/03/09/18:22:19.128886,8658,1646846536,3.128622335,1646846539.12862,-0.0898030107169,-0.0163433439502,-0.902127733684,0.421703529145,"(0.00872665, 0.0, 0.0, 0.0, 0.00872665, 0.0, 0.0, 0.0, 0.00872665)",-0.101301014423,-0.0231413096189,-0.708056151867,"(0.000872665, 0.0, 0.0, 0.0, 0.000872665, 0.0, 0.0, 0.0, 0.000872665)",0.162296596728,-2.4831864801,-0.288158388734,"(0.003, 0.0, 0.0, 0.0, 0.003, 0.0, 0.0, 0.0, 0.003)",,
2022/03/09/18:22:19.161925,8659,1646846536,3.161485372,1646846539.16149,-0.0915379409481,-0.0135677902174,-0.906730953964,0.411431279267,"(0.00872665, 0.0, 0.0, 0.0, 0.00872665, 0.0, 0.0, 0.0, 0.00872665)",-0.0689416229725,-0.0182380527258,-0.741114377975,"(0.000872665, 0.0, 0.0, 0.0, 0.000872665, 0.0, 0.0, 0.0, 0.000872665)",0.215234655999,-2.34737261742,-0.27414085865,"(0.003, 0.0, 0.0, 0.0, 0.003, 0.0, 0.0, 0.0, 0.003)",,
2022/03/09/18:22:19.190182,8660,1646846536,3.18969257,1646846539.18969,-0.0927953991047,-0.0106026531711,-0.911232098322,0.401164131794,"(0.00872665, 0.0, 0.0, 0.0, 0.00872665, 0.0, 0.0, 0.0, 0.00872665)",-0.0445661023259,-0.0186907686293,-0.707601487637,"(0.000872665, 0.0, 0.0, 0.0, 0.000872665, 0.0, 0.0, 0.0, 0.000872665)",0.249674427286,-2.18661029354,-0.229980931878,"(0.003, 0.0, 0.0, 0.0, 0.003, 0.0, 0.0, 0.0, 0.003)",,
2022/03/09/18:22:19.219346,8661,1646846536,3.21841245,1646846539.21841,-0.0937509364443,-0.00773442671833,-0.915315100655,0.39159827256,"(0.00872665, 0.0, 0.0, 0.0, 0.00872665, 0.0, 0.0, 0.0, 0.00872665)",-0.0381751619279,-0.0188791416585,-0.633695840836,"(0.000872665, 0.0, 0.0, 0.0, 0.000872665, 0.0, 0.0, 0.0, 0.000872665)",0.291756436341,-2.08538870484,-0.179007244706,"(0.003, 0.0, 0.0, 0.0, 0.003, 0.0, 0.0, 0.0, 0.003)",,
2022/03/09/18:22:19.248050,8662,1646846536,3.247791536,1646846539.24779,-0.094576624008,-0.00518060514041,-0.918739536313,0.383335477014,"(0.00872665, 0.0, 0.0, 0.0, 0.00872665, 0.0, 0.0, 0.0, 0.00872665)",-0.0386414453387,-0.0242975912988,-0.523178219795,"(0.000872665, 0.0, 0.0, 0.0, 0.000872665, 0.0, 0.0, 0.0, 0.000872665)",0.311367741823,-2.01261265084,-0.118841149807,"(0.003, 0.0, 0.0, 0.0, 0.003, 0.0, 0.0, 0.0, 0.003)",,
2022/03/09/18:22:19.282188,8663,1646846536,3.281819805,1646846539.28182,-0.095374315211,-0.0030500112365,-0.921392229848,0.376737038536,"(0.00872665, 0.0, 0.0, 0.0, 0.00872665, 0.0, 0.0, 0.0, 0.00872665)",-0.0410298630595,-0.0320084765553,-0.394640177488,"(0.000872665, 0.0, 0.0, 0.0, 0.000872665, 0.0, 0.0, 0.0, 0.000872665)",0.327848703861,-2.00984808728,-0.103806788921,"(0.003, 0.0, 0.0, 0.0, 0.003, 0.0, 0.0, 0.0, 0.003)",,
2022/03/09/18:22:19.308309,8664,1646846536,3.307958377,1646846539.30796,-0.0961710251012,-0.00133618319047,-0.923279357869,0.371893231826,"(0.00872665, 0.0, 0.0, 0.0, 0.00872665, 0.0, 0.0, 0.0, 0.00872665)",-0.038404636085,-0.0387344546616,-0.276099592447,"(0.000872665, 0.0, 0.0, 0.0, 0.000872665, 0.0, 0.0, 0.0, 0.000872665)",0.363613856211,-2.06576120988,-0.109048817754,"(0.003, 0.0, 0.0, 0.0, 0.003, 0.0, 0.0, 0.0, 0.003)",,
2022/03/09/18:22:19.338959,8665,1646846536,3.337441843,1646846539.33744,-0.0967919608333,3.79210352318E-05,-0.92455020094,0.368562397461,"(0.00872665, 0.0, 0.0, 0.0, 0.00872665, 0.0, 0.0, 0.0, 0.00872665)",-0.0186874885112,-0.0367058850825,-0.185845553875,"(0.000872665, 0.0, 0.0, 0.0, 0.000872665, 0.0, 0.0, 0.0, 0.000872665)",0.438204520494,-2.21040568382,-0.131572292447,"(0.003, 0.0, 0.0, 0.0, 0.003, 0.0, 0.0, 0.0, 0.003)",,
2022/03/09/18:22:19.368747,8666,1646846536,3.3682205,1646846539.36822,-0.097029026471,0.00113290233485,-0.925426163806,0.366292915435,"(0.00872665, 0.0, 0.0, 0.0, 0.00872665, 0.0, 0.0, 0.0, 0.00872665)",0.0117657678202,-0.0269500613213,-0.1308260113,"(0.000872665, 0.0, 0.0, 0.0, 0.000872665, 0.0, 0.0, 0.0, 0.000872665)",0.520744693726,-2.32017385527,-0.185189505816,"(0.003, 0.0, 0.0, 0.0, 0.003, 0.0, 0.0, 0.0, 0.003)",,
2022/03/09/18:22:19.403772,8667,1646846536,3.400687025,1646846539.40069,-0.0966533136485,0.00212842975165,-0.92615477885,0.364542085858,"(0.00872665, 0.0, 0.0, 0.0, 0.00872665, 0.0, 0.0, 0.0, 0.00872665)",0.0581817626953,-0.0096965637058,-0.12813231349,"(0.000872665, 0.0, 0.0, 0.0, 0.000872665, 0.0, 0.0, 0.0, 0.000872665)",0.573096788898,-2.45494589031,-0.203883638978,"(0.003, 0.0, 0.0, 0.0, 0.003, 0.0, 0.0, 0.0, 0.003)",,
2022/03/09/18:22:19.428760,8668,1646846536,3.427421385,1646846539.42742,-0.0952526232188,0.00323013628534,-0.927005210137,0.362736604672,"(0.00872665, 0.0, 0.0, 0.0, 0.00872665, 0.0, 0.0, 0.0, 0.00872665)",0.124093338847,0.012399405241,-0.164901047945,"(0.000872665, 0.0, 0.0, 0.0, 0.000872665, 0.0, 0.0, 0.0, 0.000872665)",0.579627909511,-2.57315612555,-0.23045981884,"(0.003, 0.0, 0.0, 0.0, 0.003, 0.0, 0.0, 0.0, 0.003)",,
2022/03/09/18:22:19.458791,8669,1646846536,3.457044207,1646846539.45704,-0.0926492879651,0.00463717935297,-0.928202230057,0.360326554842,"(0.00872665, 0.0, 0.0, 0.0, 0.00872665, 0.0, 0.0, 0.0, 0.00872665)",0.201200455427,0.0325668752193,-0.239928945899,"(0.000872665, 0.0, 0.0, 0.0, 0.000872665, 0.0, 0.0, 0.0, 0.000872665)",0.575084476769,-2.67326630473,-0.253561583161,"(0.003, 0.0, 0.0, 0.0, 0.003, 0.0, 0.0, 0.0, 0.003)",,
2022/03/09/18:22:19.490868,8670,1646846536,3.489462871,1646846539.48946,-0.0887048260033,0.0064707871089,-0.929913007292,0.356863253401,"(0.00872665, 0.0, 0.0, 0.0, 0.00872665, 0.0, 0.0, 0.0, 0.00872665)",0.294123321772,0.0610418245196,-0.338564813137,"(0.000872665, 0.0, 0.0, 0.0, 0.000872665, 0.0, 0.0, 0.0, 0.000872665)",0.560111438558,-2.70115927756,-0.275252414346,"(0.003, 0.0, 0.0, 0.0, 0.003, 0.0, 0.0, 0.0, 0.003)",,
2022/03/09/18:22:19.522127,8671,1646846536,3.520759317,1646846539.52076,-0.083281771626,0.00875363189868,-0.932203823601,0.352112981451,"(0.00872665, 0.0, 0.0, 0.0, 0.00872665, 0.0, 0.0, 0.0, 0.00872665)",0.393750071526,0.0858254879713,-0.448580890894,"(0.000872665, 0.0, 0.0, 0.0, 0.000872665, 0.0, 0.0, 0.0, 0.000872665)",0.545495519042,-2.64243422896,-0.284130241871,"(0.003, 0.0, 0.0, 0.0, 0.003, 0.0, 0.0, 0.0, 0.003)",,
2022/03/09/18:22:19.546760,8672,1646846536,3.54643196,1646846539.54643,-0.0764043050146,0.0113659113634,-0.935020503868,0.346077817233,"(0.00872665, 0.0, 0.0, 0.0, 0.00872665, 0.0, 0.0, 0.0, 0.00872665)",0.489649683237,0.115112051368,-0.546403467655,"(0.000872665, 0.0, 0.0, 0.0, 0.000872665, 0.0, 0.0, 0.0, 0.000872665)",0.544976286292,-2.51868755758,-0.345044780374,"(0.003, 0.0, 0.0, 0.0, 0.003, 0.0, 0.0, 0.0, 0.003)",,
2022/03/09/18:22:19.577578,8673,1646846536,3.575975581,1646846539.57598,-0.0679587713128,0.0140995393339,-0.938227129273,0.338987702267,"(0.00872665, 0.0, 0.0, 0.0, 0.00872665, 0.0, 0.0, 0.0, 0.00872665)",0.58040946722,0.14836768806,-0.617002367973,"(0.000872665, 0.0, 0.0, 0.0, 0.000872665, 0.0, 0.0, 0.0, 0.000872665)",0.523225301877,-2.29005645543,-0.433109110594,"(0.003, 0.0, 0.0, 0.0, 0.003, 0.0, 0.0, 0.0, 0.003)",,
2022/03/09/18:22:19.609327,8674,1646846536,3.607825028,1646846539.60783,-0.0580730702338,0.0166498221615,-0.941589336266,0.331300201881,"(0.00872665, 0.0, 0.0, 0.0, 0.00872665, 0.0, 0.0, 0.0, 0.00872665)",0.656196594238,0.171697169542,-0.646713912487,"(0.000872665, 0.0, 0.0, 0.0, 0.000872665, 0.0, 0.0, 0.0, 0.000872665)",0.499754870608,-1.98339791492,-0.536689612269,"(0.003, 0.0, 0.0, 0.0, 0.003, 0.0, 0.0, 0.0, 0.003)",,
2022/03/09/18:22:19.644503,8675,1646846536,3.642471228,1646846539.64247,-0.0470183932906,0.0187549734862,-0.944836375729,0.323607392934,"(0.00872665, 0.0, 0.0, 0.0, 0.00872665, 0.0, 0.0, 0.0, 0.00872665)",0.712517857552,0.204508572817,-0.61823707819,"(0.000872665, 0.0, 0.0, 0.0, 0.000872665, 0.0, 0.0, 0.0, 0.000872665)",0.485136539117,-1.61489162028,-0.645887534022,"(0.003, 0.0, 0.0, 0.0, 0.003, 0.0, 0.0, 0.0, 0.003)",,
2022/03/09/18:22:19.665941,8676,1646846536,3.665539457,1646846539.66554,-0.0351613894227,0.0202331753609,-0.947736067508,0.31646586175,"(0.00872665, 0.0, 0.0, 0.0, 0.00872665, 0.0, 0.0, 0.0, 0.00872665)",0.748177468777,0.229399487376,-0.557714939117,"(0.000872665, 0.0, 0.0, 0.0, 0.000872665, 0.0, 0.0, 0.0, 0.000872665)",0.362528686076,-1.16930023916,-0.704840331674,"(0.003, 0.0, 0.0, 0.0, 0.003, 0.0, 0.0, 0.0, 0.003)",,
2022/03/09/18:22:19.695204,8677,1646846536,3.694857619,1646846539.69486,-0.0229094299146,0.0209835621701,-0.949988213267,0.310736613218,"(0.00872665, 0.0, 0.0, 0.0, 0.00872665, 0.0, 0.0, 0.0, 0.00872665)",0.762841463089,0.246123924851,-0.409134417772,"(0.000872665, 0.0, 0.0, 0.0, 0.000872665, 0.0, 0.0, 0.0, 0.000872665)",0.348307636343,-0.770444994941,-0.799413197637,"(0.003, 0.0, 0.0, 0.0, 0.003, 0.0, 0.0, 0.0, 0.003)",,
2022/03/09/18:22:19.743937,8678,1646846536,3.740074885,1646846539.74008,-0.0107041725353,0.0211766975866,-0.951356025358,0.307178581911,"(0.00872665, 0.0, 0.0, 0.0, 0.00872665, 0.0, 0.0, 0.0, 0.00872665)",0.756386399269,0.250904947519,-0.213506773114,"(0.000872665, 0.0, 0.0, 0.0, 0.000872665, 0.0, 0.0, 0.0, 0.000872665)",0.214148645326,-0.3459529626,-0.785086934566,"(0.003, 0.0, 0.0, 0.0, 0.003, 0.0, 0.0, 0.0, 0.003)",,
2022/03/09/18:22:19.758099,8679,1646846536,3.755019897,1646846539.75502,0.0010589297146,0.0210843369946,-0.951602414965,0.306605892367,"(0.00872665, 0.0, 0.0, 0.0, 0.00872665, 0.0, 0.0, 0.0, 0.00872665)",0.731744647026,0.246933355927,0.037584412843,"(0.000872665, 0.0, 0.0, 0.0, 0.000872665, 0.0, 0.0, 0.0, 0.000872665)",0.119639879465,0.0437685653195,-0.746559630632,"(0.003, 0.0, 0.0, 0.0, 0.003, 0.0, 0.0, 0.0, 0.003)",,
2022/03/09/18:22:19.788619,8680,1646846536,3.787750622,1646846539.78775,0.0120936963998,0.0210669067862,-0.950600507357,0.309465027682,"(0.00872665, 0.0, 0.0, 0.0, 0.00872665, 0.0, 0.0, 0.0, 0.00872665)",0.696021795273,0.227730616927,0.300814568996,"(0.000872665, 0.0, 0.0, 0.0, 0.000872665, 0.0, 0.0, 0.0, 0.000872665)",0.00768287591636,0.393734143116,-0.722748014331,"(0.003, 0.0, 0.0, 0.0, 0.003, 0.0, 0.0, 0.0, 0.003)",,
2022/03/09/18:22:19.815372,8681,1646846536,3.814102061,1646846539.8141,0.022234752909,0.0214962790617,-0.948280437363,0.315923626633,"(0.00872665, 0.0, 0.0, 0.0, 0.00872665, 0.0, 0.0, 0.0, 0.00872665)",0.652548968792,0.205716207623,0.570622622967,"(0.000872665, 0.0, 0.0, 0.0, 0.000872665, 0.0, 0.0, 0.0, 0.000872665)",-0.0568635692261,0.688980051577,-0.661528835893,"(0.003, 0.0, 0.0, 0.0, 0.003, 0.0, 0.0, 0.0, 0.003)",,
2022/03/09/18:22:19.847904,8682,1646846536,3.847558724,1646846539.84756,0.0313229519557,0.0226292473985,-0.94455095815,0.326083236767,"(0.00872665, 0.0, 0.0, 0.0, 0.00872665, 0.0, 0.0, 0.0, 0.00872665)",0.60482186079,0.183139979839,0.831713855267,"(0.000872665, 0.0, 0.0, 0.0, 0.000872665, 0.0, 0.0, 0.0, 0.000872665)",-0.0561576275714,0.917455471605,-0.631644301414,"(0.003, 0.0, 0.0, 0.0, 0.003, 0.0, 0.0, 0.0, 0.003)",,
2022/03/09/18:22:19.876449,8683,1646846536,3.875148753,1646846539.87515,0.0393402223917,0.0246598669672,-0.939499994084,0.339387682421,"(0.00872665, 0.0, 0.0, 0.0, 0.00872665, 0.0, 0.0, 0.0, 0.00872665)",0.561443448067,0.155218660831,1.03614723682,"(0.000872665, 0.0, 0.0, 0.0, 0.000872665, 0.0, 0.0, 0.0, 0.000872665)",-0.107978521474,1.11164954334,-0.59120437324,"(0.003, 0.0, 0.0, 0.0, 0.003, 0.0, 0.0, 0.0, 0.003)",,
2022/03/09/18:22:19.905428,8684,1646846536,3.903940472,1646846539.90394,0.046275405074,0.0276564986819,-0.933217808665,0.355243897283,"(0.00872665, 0.0, 0.0, 0.0, 0.00872665, 0.0, 0.0, 0.0, 0.00872665)",0.519235670567,0.130378454924,1.20977342129,"(0.000872665, 0.0, 0.0, 0.0, 0.000872665, 0.0, 0.0, 0.0, 0.000872665)",-0.109541591853,1.24856852978,-0.60383435905,"(0.003, 0.0, 0.0, 0.0, 0.003, 0.0, 0.0, 0.0, 0.003)",,
2022/03/09/18:22:19.934300,8685,1646846536,3.933885721,1646846539.93389,0.052194708585,0.0315706969582,-0.925816074791,0.373019569391,"(0.00872665, 0.0, 0.0, 0.0, 0.00872665, 0.0, 0.0, 0.0, 0.00872665)",0.488469958305,0.10929338634,1.32452118397,"(0.000872665, 0.0, 0.0, 0.0, 0.000872665, 0.0, 0.0, 0.0, 0.000872665)",-0.094134854693,1.32554098427,-0.590179941058,"(0.003, 0.0, 0.0, 0.0, 0.003, 0.0, 0.0, 0.0, 0.003)",,
2022/03/09/18:22:19.970103,8686,1646846536,3.969762175,1646846539.96976,0.0572039081997,0.0363132095741,-0.917510381875,0.391897643331,"(0.00872665, 0.0, 0.0, 0.0, 0.00872665, 0.0, 0.0, 0.0, 0.00872665)",0.467001765966,0.0860042646527,1.38318884373,"(0.000872665, 0.0, 0.0, 0.0, 0.000872665, 0.0, 0.0, 0.0, 0.000872665)",-0.0954060028307,1.39728822067,-0.560395978689,"(0.003, 0.0, 0.0, 0.0, 0.003, 0.0, 0.0, 0.0, 0.003)",,
2022/03/09/18:22:19.994907,8687,1646846536,3.993447046,1646846539.99345,0.0614168560303,0.0417693468227,-0.908534152023,0.411155671333,"(0.00872665, 0.0, 0.0, 0.0, 0.00872665, 0.0, 0.0, 0.0, 0.00872665)",0.449806392193,0.0659989118576,1.3921456337,"(0.000872665, 0.0, 0.0, 0.0, 0.000872665, 0.0, 0.0, 0.0, 0.000872665)",-0.0709202025644,1.46421238124,-0.536346965432,"(0.003, 0.0, 0.0, 0.0, 0.003, 0.0, 0.0, 0.0, 0.003)",,
2022/03/09/18:22:20.024763,8688,1646846536,4.23139346,1646846540.23139,0.0649960041875,0.0477354705826,-0.89920200343,0.430037906835,"(0.00872665, 0.0, 0.0, 0.0, 0.00872665, 0.0, 0.0, 0.0, 0.00872665)",0.444574654102,0.0467282757163,1.34243142605,"(0.000872665, 0.0, 0.0, 0.0, 0.000872665, 0.0, 0.0, 0.0, 0.000872665)",-0.0663798213378,1.52878479168,-0.508848679662,"(0.003, 0.0, 0.0, 0.0, 0.003, 0.0, 0.0, 0.0, 0.003)",,
2022/03/09/18:22:20.055370,8689,1646846536,4.52637015,1646846540.52637,0.068093603996,0.0540258380135,-0.88986180626,0.447873236175,"(0.00872665, 0.0, 0.0, 0.0, 0.00872665, 0.0, 0.0, 0.0, 0.00872665)",0.437051832676,0.0290623418987,1.25849556923,"(0.000872665, 0.0, 0.0, 0.0, 0.000872665, 0.0, 0.0, 0.0, 0.000872665)",-0.056281716451,1.62287613943,-0.471417143941,"(0.003, 0.0, 0.0, 0.0, 0.003, 0.0, 0.0, 0.0, 0.003)",,
2022/03/09/18:22:20.090844,8690,1646846536,4.89313716,1646846540.89314,0.0708149868408,0.0604795307313,-0.880787043485,0.464264631466,"(0.00872665, 0.0, 0.0, 0.0, 0.00872665, 0.0, 0.0, 0.0, 0.00872665)",0.429195761681,0.0152840893716,1.14130914211,"(0.000872665, 0.0, 0.0, 0.0, 0.000872665, 0.0, 0.0, 0.0, 0.000872665)",-0.0203716627881,1.73454012439,-0.424326007962,"(0.003, 0.0, 0.0, 0.0, 0.003, 0.0, 0.0, 0.0, 0.003)",,
2022/03/09/18:22:20.114547,8691,1646846536,4.112483831,1646846540.11248,0.073269732575,0.0669374352982,-0.872243712831,0.478896472602,"(0.00872665, 0.0, 0.0, 0.0, 0.00872665, 0.0, 0.0, 0.0, 0.00872665)",0.418180793524,-9.07825306058E-05,1.0092445612,"(0.000872665, 0.0, 0.0, 0.0, 0.000872665, 0.0, 0.0, 0.0, 0.000872665)",0.0196986848116,1.87490253612,-0.405048322678,"(0.003, 0.0, 0.0, 0.0, 0.003, 0.0, 0.0, 0.0, 0.003)",,
2022/03/09/18:22:20.142893,8692,1646846536,4.142375961,1646846540.14238,0.0754937383848,0.0732431152969,-0.864380411475,0.491713987786,"(0.00872665, 0.0, 0.0, 0.0, 0.00872665, 0.0, 0.0, 0.0, 0.00872665)",0.401001393795,-0.0147435963154,0.886990010738,"(0.000872665, 0.0, 0.0, 0.0, 0.000872665, 0.0, 0.0, 0.0, 0.000872665)",0.0800214120001,2.03706205219,-0.381131456494,"(0.003, 0.0, 0.0, 0.0, 0.003, 0.0, 0.0, 0.0, 0.003)",,
2022/03/09/18:22:20.171821,8693,1646846536,4.17141562,1646846540.17142,0.0774364772293,0.0792580472907,-0.857236129557,0.502859793696,"(0.00872665, 0.0, 0.0, 0.0, 0.00872665, 0.0, 0.0, 0.0, 0.00872665)",0.373430639505,-0.0195084214211,0.763506472111,"(0.000872665, 0.0, 0.0, 0.0, 0.000872665, 0.0, 0.0, 0.0, 0.000872665)",0.154254007414,2.23989670068,-0.357506366372,"(0.003, 0.0, 0.0, 0.0, 0.003, 0.0, 0.0, 0.0, 0.003)",,
2022/03/09/18:22:20.208231,8694,1646846536,4.207820962,1646846540.20782,0.0790769918505,0.0847870492912,-0.850856856521,0.512445699898,"(0.00872665, 0.0, 0.0, 0.0, 0.00872665, 0.0, 0.0, 0.0, 0.00872665)",0.328169554472,-0.0254951063544,0.658289849758,"(0.000872665, 0.0, 0.0, 0.0, 0.000872665, 0.0, 0.0, 0.0, 0.000872665)",0.251829930246,2.45427462995,-0.325553671718,"(0.003, 0.0, 0.0, 0.0, 0.003, 0.0, 0.0, 0.0, 0.003)",,
2022/03/09/18:22:20.231996,8695,1646846536,4.231596812,1646846540.2316,0.0802252071926,0.0896814742911,-0.845184445792,0.520753686392,"(0.00872665, 0.0, 0.0, 0.0, 0.00872665, 0.0, 0.0, 0.0, 0.00872665)",0.271001189947,-0.0212573595345,0.577057778835,"(0.000872665, 0.0, 0.0, 0.0, 0.000872665, 0.0, 0.0, 0.0, 0.000872665)",0.350427288562,2.67818059713,-0.270602708459,"(0.003, 0.0, 0.0, 0.0, 0.003, 0.0, 0.0, 0.0, 0.003)",,
2022/03/09/18:22:20.262320,8696,1646846536,4.261491783,1646846540.26149,0.0807243999002,0.0937693415371,-0.840122460007,0.528095762187,"(0.00872665, 0.0, 0.0, 0.0, 0.00872665, 0.0, 0.0, 0.0, 0.00872665)",0.197311460972,-0.0114437863231,0.520943284035,"(0.000872665, 0.0, 0.0, 0.0, 0.000872665, 0.0, 0.0, 0.0, 0.000872665)",0.447108514309,2.88624821126,-0.214293437004,"(0.003, 0.0, 0.0, 0.0, 0.003, 0.0, 0.0, 0.0, 0.003)",,
2022/03/09/18:22:20.291865,8697,1646846536,4.290890751,1646846540.29089,0.0804042480939,0.0969533602478,-0.835545968964,0.534787936076,"(0.00872665, 0.0, 0.0, 0.0, 0.00872665, 0.0, 0.0, 0.0, 0.00872665)",0.115823172033,0.000836889259517,0.493718087673,"(0.000872665, 0.0, 0.0, 0.0, 0.000872665, 0.0, 0.0, 0.0, 0.000872665)",0.52271462068,3.02769703567,-0.147358020544,"(0.003, 0.0, 0.0, 0.0, 0.003, 0.0, 0.0, 0.0, 0.003)",,
2022/03/09/18:22:20.328951,8698,1646846536,4.328586123,1646846540.32859,0.0790830424409,0.0991541337207,-0.831286858556,0.541180643554,"(0.00872665, 0.0, 0.0, 0.0, 0.00872665, 0.0, 0.0, 0.0, 0.00872665)",0.0157700609416,0.0190223716199,0.483117878437,"(0.000872665, 0.0, 0.0, 0.0, 0.000872665, 0.0, 0.0, 0.0, 0.000872665)",0.602800352052,3.12013040543,-0.123849290013,"(0.003, 0.0, 0.0, 0.0, 0.003, 0.0, 0.0, 0.0, 0.003)",,
2022/03/09/18:22:20.351889,8699,1646846536,4.350715057,1646846540.35072,0.076731217831,0.1002637588,-0.827322409886,0.547354664712,"(0.00872665, 0.0, 0.0, 0.0, 0.00872665, 0.0, 0.0, 0.0, 0.00872665)",-0.0815452113748,0.0374981202185,0.471581101418,"(0.000872665, 0.0, 0.0, 0.0, 0.000872665, 0.0, 0.0, 0.0, 0.000872665)",0.64434386909,3.14269217938,-0.0894167912006,"(0.003, 0.0, 0.0, 0.0, 0.003, 0.0, 0.0, 0.0, 0.003)",,
2022/03/09/18:22:20.381333,8700,1646846536,4.380549825,1646846540.38055,0.0734489587136,0.100124983432,-0.823811717702,0.55309537327,"(0.00872665, 0.0, 0.0, 0.0, 0.00872665, 0.0, 0.0, 0.0, 0.00872665)",-0.181712314487,0.0623250380158,0.43696564436,"(0.000872665, 0.0, 0.0, 0.0, 0.000872665, 0.0, 0.0, 0.0, 0.000872665)",0.67698960498,3.09054934144,-0.089827850461,"(0.003, 0.0, 0.0, 0.0, 0.003, 0.0, 0.0, 0.0, 0.003)",,
2022/03/09/18:22:20.413096,8701,1646846536,4.412569082,1646846540.41257,0.0694510497125,0.0986658769069,-0.820910838311,0.558163947216,"(0.00872665, 0.0, 0.0, 0.0, 0.00872665, 0.0, 0.0, 0.0, 0.00872665)",-0.271643579006,0.0838540866971,0.390193521976,"(0.000872665, 0.0, 0.0, 0.0, 0.000872665, 0.0, 0.0, 0.0, 0.000872665)",0.673340576962,2.95922380149,-0.137593755126,"(0.003, 0.0, 0.0, 0.0, 0.003, 0.0, 0.0, 0.0, 0.003)",,
2022/03/09/18:22:20.440702,8702,1646846536,4.440408216,1646846540.44041,0.0649149054792,0.0958956986042,-0.818736637753,0.562370329976,"(0.00872665, 0.0, 0.0, 0.0, 0.00872665, 0.0, 0.0, 0.0, 0.00872665)",-0.356061279774,0.111107409,0.312817573547,"(0.000872665, 0.0, 0.0, 0.0, 0.000872665, 0.0, 0.0, 0.0, 0.000872665)",0.645749612823,2.79406100929,-0.195293494463,"(0.003, 0.0, 0.0, 0.0, 0.003, 0.0, 0.0, 0.0, 0.003)",,
2022/03/09/18:22:20.472121,8703,1646846536,4.470077543,1646846540.47008,0.0601251859295,0.0918108122185,-0.81758800439,0.565248256835,"(0.00872665, 0.0, 0.0, 0.0, 0.00872665, 0.0, 0.0, 0.0, 0.00872665)",-0.428154349327,0.129083961248,0.203508287668,"(0.000872665, 0.0, 0.0, 0.0, 0.000872665, 0.0, 0.0, 0.0, 0.000872665)",0.562700658739,2.58292156041,-0.275975714922,"(0.003, 0.0, 0.0, 0.0, 0.003, 0.0, 0.0, 0.0, 0.003)",,
2022/03/09/18:22:20.501638,8704,1646846536,4.499343168,1646846540.49934,0.0552409945589,0.0865637878067,-0.817667312368,0.566458568163,"(0.00872665, 0.0, 0.0, 0.0, 0.00872665, 0.0, 0.0, 0.0, 0.00872665)",-0.490241587162,0.145367011428,0.06036445871,"(0.000872665, 0.0, 0.0, 0.0, 0.000872665, 0.0, 0.0, 0.0, 0.000872665)",0.460719443634,2.33401333764,-0.341310163736,"(0.003, 0.0, 0.0, 0.0, 0.003, 0.0, 0.0, 0.0, 0.003)",,
2022/03/09/18:22:20.529419,8705,1646846536,4.528981472,1646846540.52898,0.0504190483106,0.0803313410868,-0.819117612181,0.565730618423,"(0.00872665, 0.0, 0.0, 0.0, 0.00872665, 0.0, 0.0, 0.0, 0.00872665)",-0.534113109112,0.150100007653,-0.105892755091,"(0.000872665, 0.0, 0.0, 0.0, 0.000872665, 0.0, 0.0, 0.0, 0.000872665)",0.342935908958,2.05490307659,-0.410898461938,"(0.003, 0.0, 0.0, 0.0, 0.003, 0.0, 0.0, 0.0, 0.003)",,
2022/03/09/18:22:20.561632,8706,1646846536,4.561232086,1646846540.56123,0.0456880579043,0.0733813601711,-0.822057082308,0.562805411107,"(0.00872665, 0.0, 0.0, 0.0, 0.00872665, 0.0, 0.0, 0.0, 0.00872665)",-0.568876564503,0.149351805449,-0.289220750332,"(0.000872665, 0.0, 0.0, 0.0, 0.000872665, 0.0, 0.0, 0.0, 0.000872665)",0.21336921148,1.76438431308,-0.462448099852,"(0.003, 0.0, 0.0, 0.0, 0.003, 0.0, 0.0, 0.0, 0.003)",,
2022/03/09/18:22:20.594472,8707,1646846536,4.591290061,1646846540.59129,0.0410467903173,0.0660029991392,-0.826486009333,0.557565818075,"(0.00872665, 0.0, 0.0, 0.0, 0.00872665, 0.0, 0.0, 0.0, 0.00872665)",-0.588741838932,0.134007230401,-0.476562917233,"(0.000872665, 0.0, 0.0, 0.0, 0.000872665, 0.0, 0.0, 0.0, 0.000872665)",0.0798279422522,1.4475115639,-0.523736275434,"(0.003, 0.0, 0.0, 0.0, 0.003, 0.0, 0.0, 0.0, 0.003)",,
2022/03/09/18:22:20.620195,8708,1646846536,4.618883024,1646846540.61888,0.0363770819103,0.058502447507,-0.832223547906,0.550143742906,"(0.00872665, 0.0, 0.0, 0.0, 0.00872665, 0.0, 0.0, 0.0, 0.00872665)",-0.601245701313,0.119880720973,-0.641447126865,"(0.000872665, 0.0, 0.0, 0.0, 0.000872665, 0.0, 0.0, 0.0, 0.000872665)",-0.00233260050416,1.20253522821,-0.529754814506,"(0.003, 0.0, 0.0, 0.0, 0.003, 0.0, 0.0, 0.0, 0.003)",,
2022/03/09/18:22:20.652385,8709,1646846536,4.648210653,1646846540.64821,0.0316391029055,0.0511353051857,-0.839137083143,0.540585889036,"(0.00872665, 0.0, 0.0, 0.0, 0.00872665, 0.0, 0.0, 0.0, 0.00872665)",-0.598919332027,0.0959212332964,-0.810166835785,"(0.000872665, 0.0, 0.0, 0.0, 0.000872665, 0.0, 0.0, 0.0, 0.000872665)",-0.0669972873107,0.919855899811,-0.581680428386,"(0.003, 0.0, 0.0, 0.0, 0.003, 0.0, 0.0, 0.0, 0.003)",,
2022/03/09/18:22:20.681092,8710,1646846536,4.680537678,1646846540.68054,0.0267258067813,0.0441538539286,-0.847041706137,0.529014665675,"(0.00872665, 0.0, 0.0, 0.0, 0.00872665, 0.0, 0.0, 0.0, 0.00872665)",-0.593859314919,0.072151593864,-0.956731259823,"(0.000872665, 0.0, 0.0, 0.0, 0.000872665, 0.0, 0.0, 0.0, 0.000872665)",-0.0896685503796,0.689881180599,-0.573779670596,"(0.003, 0.0, 0.0, 0.0, 0.003, 0.0, 0.0, 0.0, 0.003)",,
2022/03/09/18:22:20.708841,8711,1646846536,4.708437964,1646846540.70844,0.021582063508,0.0377000749383,-0.855665317819,0.515703192512,"(0.00872665, 0.0, 0.0, 0.0, 0.00872665, 0.0, 0.0, 0.0, 0.00872665)",-0.587812960148,0.0447509028018,-1.07440245152,"(0.000872665, 0.0, 0.0, 0.0, 0.000872665, 0.0, 0.0, 0.0, 0.000872665)",-0.0931997204572,0.494244235307,-0.605542330742,"(0.003, 0.0, 0.0, 0.0, 0.003, 0.0, 0.0, 0.0, 0.003)",,
2022/03/09/18:22:20.739758,8712,1646846536,4.738183782,1646846540.73818,0.01614082174,0.0318805008135,-0.8647377853,0.500950766259,"(0.00872665, 0.0, 0.0, 0.0, 0.00872665, 0.0, 0.0, 0.0, 0.00872665)",-0.579625785351,0.0245117545128,-1.1651750803,"(0.000872665, 0.0, 0.0, 0.0, 0.000872665, 0.0, 0.0, 0.0, 0.000872665)",-0.0540964657813,0.334664510787,-0.608688717484,"(0.003, 0.0, 0.0, 0.0, 0.003, 0.0, 0.0, 0.0, 0.003)",,
2022/03/09/18:22:20.770518,8713,1646846536,4.768478078,1646846540.76848,0.010381549672,0.0267573669879,-0.873957883822,0.485153464426,"(0.00872665, 0.0, 0.0, 0.0, 0.00872665, 0.0, 0.0, 0.0, 0.00872665)",-0.57328414917,0.00761556997895,-1.21808505058,"(0.000872665, 0.0, 0.0, 0.0, 0.000872665, 0.0, 0.0, 0.0, 0.000872665)",0.00537768423557,0.185272426642,-0.62644261837,"(0.003, 0.0, 0.0, 0.0, 0.003, 0.0, 0.0, 0.0, 0.003)",,
2022/03/09/18:22:20.802426,8714,1646846536,4.80108124,1646846540.80108,0.00423385668437,0.022293646559,-0.883030945378,0.468765844836,"(0.00872665, 0.0, 0.0, 0.0, 0.00872665, 0.0, 0.0, 0.0, 0.00872665)",-0.572882056236,-0.00792517699301,-1.23162043095,"(0.000872665, 0.0, 0.0, 0.0, 0.000872665, 0.0, 0.0, 0.0, 0.000872665)",0.0667819270492,0.0677778175101,-0.625772527456,"(0.003, 0.0, 0.0, 0.0, 0.003, 0.0, 0.0, 0.0, 0.003)",,
2022/03/09/18:22:20.831724,8715,1646846536,4.827741789,1646846540.82774,-0.00236899481772,0.0185033850726,-0.891698591113,0.452245105238,"(0.00872665, 0.0, 0.0, 0.0, 0.00872665, 0.0, 0.0, 0.0, 0.00872665)",-0.580808103085,-0.0224792174995,-1.209171772,"(0.000872665, 0.0, 0.0, 0.0, 0.000872665, 0.0, 0.0, 0.0, 0.000872665)",0.0952074350417,-0.0256068120059,-0.625490691662,"(0.003, 0.0, 0.0, 0.0, 0.003, 0.0, 0.0, 0.0, 0.003)",,
2022/03/09/18:22:20.857693,8716,1646846536,4.857172792,1646846540.85717,-0.00949554495304,0.0153490476023,-0.899719158535,0.436095949453,"(0.00872665, 0.0, 0.0, 0.0, 0.00872665, 0.0, 0.0, 0.0, 0.00872665)",-0.594040751457,-0.0359425954521,-1.14914119244,"(0.000872665, 0.0, 0.0, 0.0, 0.000872665, 0.0, 0.0, 0.0, 0.000872665)",0.120176507682,-0.149006971903,-0.601403671503,"(0.003, 0.0, 0.0, 0.0, 0.003, 0.0, 0.0, 0.0, 0.003)",,
2022/03/09/18:22:20.893104,8717,1646846536,4.890414342,1646846540.89041,-0.0171510847464,0.0127927276116,-0.906962457624,0.420667667966,"(0.00872665, 0.0, 0.0, 0.0, 0.00872665, 0.0, 0.0, 0.0, 0.00872665)",-0.607583165169,-0.0506403967738,-1.06786215305,"(0.000872665, 0.0, 0.0, 0.0, 0.000872665, 0.0, 0.0, 0.0, 0.000872665)",0.144514556117,-0.291671523806,-0.596510136724,"(0.003, 0.0, 0.0, 0.0, 0.003, 0.0, 0.0, 0.0, 0.003)",,
2022/03/09/18:22:20.920152,8718,1646846536,4.919741098,1646846540.91974,-0.0253215322115,0.0108045374926,-0.913342582302,0.406260272891,"(0.00872665, 0.0, 0.0, 0.0, 0.00872665, 0.0, 0.0, 0.0, 0.00872665)",-0.621321618557,-0.0674528554082,-0.972161948681,"(0.000872665, 0.0, 0.0, 0.0, 0.000872665, 0.0, 0.0, 0.0, 0.000872665)",0.173010413423,-0.487536894232,-0.578448672295,"(0.003, 0.0, 0.0, 0.0, 0.003, 0.0, 0.0, 0.0, 0.003)",,
2022/03/09/18:22:20.947640,8719,1646846536,4.947119046,1646846540.94712,-0.0338773507322,0.00933993904726,-0.918853152889,0.393031772345,"(0.00872665, 0.0, 0.0, 0.0, 0.00872665, 0.0, 0.0, 0.0, 0.00872665)",-0.627314090729,-0.0803490430117,-0.86931759119,"(0.000872665, 0.0, 0.0, 0.0, 0.000872665, 0.0, 0.0, 0.0, 0.000872665)",0.201191763617,-0.711905449256,-0.580022742748,"(0.003, 0.0, 0.0, 0.0, 0.003, 0.0, 0.0, 0.0, 0.003)",,
2022/03/09/18:22:20.976435,8720,1646846536,4.976001105,1646846540.976,-0.0426787677721,0.00836095585905,-0.923562240526,0.380974284005,"(0.00872665, 0.0, 0.0, 0.0, 0.00872665, 0.0, 0.0, 0.0, 0.00872665)",-0.627905488014,-0.0938656330109,-0.777156949043,"(0.000872665, 0.0, 0.0, 0.0, 0.000872665, 0.0, 0.0, 0.0, 0.000872665)",0.24208905369,-0.978350787386,-0.577035984993,"(0.003, 0.0, 0.0, 0.0, 0.003, 0.0, 0.0, 0.0, 0.003)",,
2022/03/09/18:22:21.016608,8721,1646846536,5.1541739,1646846541.15417,-0.0515261006677,0.00780986002887,-0.927576250719,0.369981575404,"(0.00872665, 0.0, 0.0, 0.0, 0.00872665, 0.0, 0.0, 0.0, 0.00872665)",-0.613084375858,-0.10135667026,-0.692384362221,"(0.000872665, 0.0, 0.0, 0.0, 0.000872665, 0.0, 0.0, 0.0, 0.000872665)",0.289532667138,-1.27785986423,-0.579741491675,"(0.003, 0.0, 0.0, 0.0, 0.003, 0.0, 0.0, 0.0, 0.003)",,
2022/03/09/18:22:21.041588,8722,1646846536,5.40497107,1646846541.40497,-0.0601971763366,0.0076800207572,-0.931032228261,0.359855953379,"(0.00872665, 0.0, 0.0, 0.0, 0.00872665, 0.0, 0.0, 0.0, 0.00872665)",-0.588771164417,-0.1076323241,-0.630666255951,"(0.000872665, 0.0, 0.0, 0.0, 0.000872665, 0.0, 0.0, 0.0, 0.000872665)",0.327149084508,-1.58561695039,-0.54317475915,"(0.003, 0.0, 0.0, 0.0, 0.003, 0.0, 0.0, 0.0, 0.003)",,
2022/03/09/18:22:21.068194,8723,1646846536,5.65753416,1646846541.65753,-0.0684278692635,0.00803798569815,-0.934114122259,0.3502625074,"(0.00872665, 0.0, 0.0, 0.0, 0.00872665, 0.0, 0.0, 0.0, 0.00872665)",-0.544997870922,-0.110028766096,-0.596527636051,"(0.000872665, 0.0, 0.0, 0.0, 0.000872665, 0.0, 0.0, 0.0, 0.000872665)",0.380902976543,-1.87395835698,-0.508072754145,"(0.003, 0.0, 0.0, 0.0, 0.003, 0.0, 0.0, 0.0, 0.003)",,
2022/03/09/18:22:21.095567,8724,1646846536,5.95162192,1646846541.95162,-0.0759746210563,0.00890679003392,-0.936959657384,0.340962060179,"(0.00872665, 0.0, 0.0, 0.0, 0.00872665, 0.0, 0.0, 0.0, 0.00872665)",-0.489869087934,-0.109191261232,-0.579788684845,"(0.000872665, 0.0, 0.0, 0.0, 0.000872665, 0.0, 0.0, 0.0, 0.000872665)",0.438315836862,-2.14838324413,-0.459988176227,"(0.003, 0.0, 0.0, 0.0, 0.003, 0.0, 0.0, 0.0, 0.003)",,
2022/03/09/18:22:21.128976,8725,1646846536,5.12849366,1646846541.12849,-0.0826126661033,0.01025848155,-0.939688112673,0.331747135415,"(0.00872665, 0.0, 0.0, 0.0, 0.00872665, 0.0, 0.0, 0.0, 0.00872665)",-0.418687641621,-0.103618949652,-0.58004128933,"(0.000872665, 0.0, 0.0, 0.0, 0.000872665, 0.0, 0.0, 0.0, 0.000872665)",0.515337554142,-2.3953307493,-0.389241544604,"(0.003, 0.0, 0.0, 0.0, 0.003, 0.0, 0.0, 0.0, 0.003)",,
2022/03/09/18:22:21.164525,8726,1646846536,5.161562398,1646846541.16156,-0.088105247212,0.0121440613828,-0.942403144374,0.322438057093,"(0.00872665, 0.0, 0.0, 0.0, 0.00872665, 0.0, 0.0, 0.0, 0.00872665)",-0.339795649052,-0.094553925097,-0.59814709425,"(0.000872665, 0.0, 0.0, 0.0, 0.000872665, 0.0, 0.0, 0.0, 0.000872665)",0.604835402369,-2.56817400545,-0.319552674294,"(0.003, 0.0, 0.0, 0.0, 0.003, 0.0, 0.0, 0.0, 0.003)",,
2022/03/09/18:22:21.187526,8727,1646846536,5.185167251,1646846541.18517,-0.0923455745037,0.0145059048409,-0.945150918492,0.312972226991,"(0.00872665, 0.0, 0.0, 0.0, 0.00872665, 0.0, 0.0, 0.0, 0.00872665)",-0.254947096109,-0.0792371556163,-0.614413559437,"(0.000872665, 0.0, 0.0, 0.0, 0.000872665, 0.0, 0.0, 0.0, 0.000872665)",0.699528428614,-2.70711759031,-0.251675271392,"(0.003, 0.0, 0.0, 0.0, 0.003, 0.0, 0.0, 0.0, 0.003)",,
2022/03/09/18:22:21.214837,8728,1646846536,5.214352463,1646846541.21435,-0.0951950006637,0.0171707265309,-0.947918986566,0.303467746074,"(0.00872665, 0.0, 0.0, 0.0, 0.00872665, 0.0, 0.0, 0.0, 0.00872665)",-0.171059340239,-0.05892367661,-0.624168395996,"(0.000872665, 0.0, 0.0, 0.0, 0.000872665, 0.0, 0.0, 0.0, 0.000872665)",0.785547475889,-2.77621472239,-0.190468372107,"(0.003, 0.0, 0.0, 0.0, 0.003, 0.0, 0.0, 0.0, 0.003)",,
2022/03/09/18:22:21.247765,8729,1646846536,5.247321316,1646846541.24732,-0.0967021712329,0.0200040047123,-0.950657251345,0.294107667937,"(0.00872665, 0.0, 0.0, 0.0, 0.00872665, 0.0, 0.0, 0.0, 0.00872665)",-0.0871937721968,-0.0350636988878,-0.615997433662,"(0.000872665, 0.0, 0.0, 0.0, 0.000872665, 0.0, 0.0, 0.0, 0.000872665)",0.870198420882,-2.78367109179,-0.171415219903,"(0.003, 0.0, 0.0, 0.0, 0.003, 0.0, 0.0, 0.0, 0.003)",,
2022/03/09/18:22:21.274887,8730,1646846536,5.274518245,1646846541.27452,-0.0969054015584,0.0227639327774,-0.95328925666,0.285185447823,"(0.00872665, 0.0, 0.0, 0.0, 0.00872665, 0.0, 0.0, 0.0, 0.00872665)",-0.00939279701561,-0.0074445977807,-0.589484632015,"(0.000872665, 0.0, 0.0, 0.0, 0.000872665, 0.0, 0.0, 0.0, 0.000872665)",0.926520483121,-2.73891153306,-0.156540488005,"(0.003, 0.0, 0.0, 0.0, 0.003, 0.0, 0.0, 0.0, 0.003)",,
2022/03/09/18:22:21.308876,8731,1646846536,5.303780144,1646846541.30378,-0.0959203574552,0.0252449174289,-0.955710055502,0.277092527834,"(0.00872665, 0.0, 0.0, 0.0, 0.00872665, 0.0, 0.0, 0.0, 0.00872665)",0.0609959848225,0.0191149972379,-0.534307420254,"(0.000872665, 0.0, 0.0, 0.0, 0.000872665, 0.0, 0.0, 0.0, 0.000872665)",0.969397238418,-2.65185204685,-0.154402161241,"(0.003, 0.0, 0.0, 0.0, 0.003, 0.0, 0.0, 0.0, 0.003)",,
2022/03/09/18:22:21.335025,8732,1646846536,5.334310735,1646846541.33431,-0.093918487761,0.0272615703309,-0.957827974158,0.27018826096,"(0.00872665, 0.0, 0.0, 0.0, 0.00872665, 0.0, 0.0, 0.0, 0.00872665)",0.121987678111,0.0422430187464,-0.449926406145,"(0.000872665, 0.0, 0.0, 0.0, 0.000872665, 0.0, 0.0, 0.0, 0.000872665)",0.989977902621,-2.53655138612,-0.16129778266,"(0.003, 0.0, 0.0, 0.0, 0.003, 0.0, 0.0, 0.0, 0.003)",,
2022/03/09/18:22:21.368878,8733,1646846536,5.368419081,1646846541.36842,-0.0911220465627,0.0286678873442,-0.959537712071,0.264881679206,"(0.00872665, 0.0, 0.0, 0.0, 0.00872665, 0.0, 0.0, 0.0, 0.00872665)",0.171895682812,0.0676406025887,-0.337096631527,"(0.000872665, 0.0, 0.0, 0.0, 0.000872665, 0.0, 0.0, 0.0, 0.000872665)",0.972100040764,-2.38753304869,-0.173345970511,"(0.003, 0.0, 0.0, 0.0, 0.003, 0.0, 0.0, 0.0, 0.003)",,
2022/03/09/18:22:21.399970,8734,1646846536,5.396522042,1646846541.39652,-0.0877301214794,0.0293350176107,-0.960748295853,0.261544632027,"(0.00872665, 0.0, 0.0, 0.0, 0.00872665, 0.0, 0.0, 0.0, 0.00872665)",0.210035160184,0.0875470861793,-0.202834650874,"(0.000872665, 0.0, 0.0, 0.0, 0.000872665, 0.0, 0.0, 0.0, 0.000872665)",0.950608307272,-2.24173521146,-0.184056900144,"(0.003, 0.0, 0.0, 0.0, 0.003, 0.0, 0.0, 0.0, 0.003)",,
2022/03/09/18:22:21.428651,8735,1646846536,5.423987949,1646846541.42399,-0.083945558313,0.0292700417956,-0.961385114093,0.260451665943,"(0.00872665, 0.0, 0.0, 0.0, 0.00872665, 0.0, 0.0, 0.0, 0.00872665)",0.244803845882,0.106912896037,-0.0455040335655,"(0.000872665, 0.0, 0.0, 0.0, 0.000872665, 0.0, 0.0, 0.0, 0.000872665)",0.91430813469,-2.09801123545,-0.202669757009,"(0.003, 0.0, 0.0, 0.0, 0.003, 0.0, 0.0, 0.0, 0.003)",,
2022/03/09/18:22:21.454769,8736,1646846536,5.452890215,1646846541.45289,-0.0798581471283,0.028481821287,-0.961421446553,0.261687340735,"(0.00872665, 0.0, 0.0, 0.0, 0.00872665, 0.0, 0.0, 0.0, 0.00872665)",0.273943662643,0.119268961251,0.106993250549,"(0.000872665, 0.0, 0.0, 0.0, 0.000872665, 0.0, 0.0, 0.0, 0.000872665)",0.87302547656,-1.9728143084,-0.206752282977,"(0.003, 0.0, 0.0, 0.0, 0.003, 0.0, 0.0, 0.0, 0.003)",,
2022/03/09/18:22:21.488840,8737,1646846536,5.488453768,1646846541.48845,-0.0754793353387,0.0270904317815,-0.960878817286,0.265105407213,"(0.00872665, 0.0, 0.0, 0.0, 0.00872665, 0.0, 0.0, 0.0, 0.00872665)",0.303081780672,0.134757757187,0.249863743782,"(0.000872665, 0.0, 0.0, 0.0, 0.000872665, 0.0, 0.0, 0.0, 0.000872665)",0.800929307565,-1.86629894301,-0.239790805578,"(0.003, 0.0, 0.0, 0.0, 0.003, 0.0, 0.0, 0.0, 0.003)",,
2022/03/09/18:22:21.513439,8738,1646846536,5.512934,1646846541.51293,-0.0707839944966,0.0252740291167,-0.959793606644,0.270457172618,"(0.00872665, 0.0, 0.0, 0.0, 0.00872665, 0.0, 0.0, 0.0, 0.00872665)",0.331168532372,0.142625525594,0.371613323689,"(0.000872665, 0.0, 0.0, 0.0, 0.000872665, 0.0, 0.0, 0.0, 0.000872665)",0.73269193545,-1.74489642039,-0.274146705866,"(0.003, 0.0, 0.0, 0.0, 0.003, 0.0, 0.0, 0.0, 0.003)",,
2022/03/09/18:22:21.546390,8739,1646846536,5.543355124,1646846541.54336,-0.0657270411213,0.0231850819309,-0.958229887985,0.277376801144,"(0.00872665, 0.0, 0.0, 0.0, 0.00872665, 0.0, 0.0, 0.0, 0.00872665)",0.358927041292,0.156442031264,0.467143028975,"(0.000872665, 0.0, 0.0, 0.0, 0.000872665, 0.0, 0.0, 0.0, 0.000872665)",0.659913396388,-1.65603774592,-0.3027746737,"(0.003, 0.0, 0.0, 0.0, 0.003, 0.0, 0.0, 0.0, 0.003)",,
2022/03/09/18:22:21.574272,8740,1646846536,5.571980893,1646846541.57198,-0.06022779248,0.0209961048832,-0.956257132085,0.285489183559,"(0.00872665, 0.0, 0.0, 0.0, 0.00872665, 0.0, 0.0, 0.0, 0.00872665)",0.391737341881,0.160296335816,0.535901129246,"(0.000872665, 0.0, 0.0, 0.0, 0.000872665, 0.0, 0.0, 0.0, 0.000872665)",0.556740372553,-1.57355852991,-0.346863264441,"(0.003, 0.0, 0.0, 0.0, 0.003, 0.0, 0.0, 0.0, 0.003)",,
2022/03/09/18:22:21.611382,8741,1646846536,5.608376955,1646846541.60838,-0.0542215308219,0.0189506016566,-0.953964303016,0.294368831338,"(0.00872665, 0.0, 0.0, 0.0, 0.00872665, 0.0, 0.0, 0.0, 0.00872665)",0.427034944296,0.167744159698,0.581572830677,"(0.000872665, 0.0, 0.0, 0.0, 0.000872665, 0.0, 0.0, 0.0, 0.000872665)",0.470262245759,-1.47811325938,-0.393594211936,"(0.003, 0.0, 0.0, 0.0, 0.003, 0.0, 0.0, 0.0, 0.003)",,
2022/03/09/18:22:21.632749,8742,1646846536,5.63219646,1646846541.6322,-0.0476542697153,0.0171551839748,-0.951438249595,0.303644574212,"(0.00872665, 0.0, 0.0, 0.0, 0.00872665, 0.0, 0.0, 0.0, 0.00872665)",0.466665059328,0.168653041124,0.598398804665,"(0.000872665, 0.0, 0.0, 0.0, 0.000872665, 0.0, 0.0, 0.0, 0.000872665)",0.373768861815,-1.36741552681,-0.441915602088,"(0.003, 0.0, 0.0, 0.0, 0.003, 0.0, 0.0, 0.0, 0.003)",,
2022/03/09/18:22:21.662140,8743,1646846536,5.661694001,1646846541.66169,-0.0404678728098,0.0157595708324,-0.948775773171,0.312951305223,"(0.00872665, 0.0, 0.0, 0.0, 0.00872665, 0.0, 0.0, 0.0, 0.00872665)",0.503007054329,0.168877571821,0.5965244174,"(0.000872665, 0.0, 0.0, 0.0, 0.000872665, 0.0, 0.0, 0.0, 0.000872665)",0.287220166437,-1.24003101021,-0.471250498295,"(0.003, 0.0, 0.0, 0.0, 0.003, 0.0, 0.0, 0.0, 0.003)",,
2022/03/09/18:22:21.692122,8744,1646846536,5.691138884,1646846541.69114,-0.0326722542097,0.0148363900066,-0.946043094391,0.322047929493,"(0.00872665, 0.0, 0.0, 0.0, 0.00872665, 0.0, 0.0, 0.0, 0.00872665)",0.543365180492,0.170314922929,0.580270111561,"(0.000872665, 0.0, 0.0, 0.0, 0.000872665, 0.0, 0.0, 0.0, 0.000872665)",0.208344223984,-1.07567718029,-0.509205944538,"(0.003, 0.0, 0.0, 0.0, 0.003, 0.0, 0.0, 0.0, 0.003)",,
2022/03/09/18:22:21.731840,8745,1646846536,5.731323023,1646846541.73132,-0.0243055175851,0.0144381182015,-0.943287477109,0.33077109621,"(0.00872665, 0.0, 0.0, 0.0, 0.00872665, 0.0, 0.0, 0.0, 0.00872665)",0.582403481007,0.167127475142,0.559900045395,"(0.000872665, 0.0, 0.0, 0.0, 0.000872665, 0.0, 0.0, 0.0, 0.000872665)",0.122275731191,-0.903243375421,-0.566984036565,"(0.003, 0.0, 0.0, 0.0, 0.003, 0.0, 0.0, 0.0, 0.003)",,
2022/03/09/18:22:21.753693,8746,1646846536,5.751281778,1646846541.75128,-0.0154504864585,0.0146209523756,-0.940534771365,0.339030756826,"(0.00872665, 0.0, 0.0, 0.0, 0.00872665, 0.0, 0.0, 0.0, 0.00872665)",0.612884163857,0.160265311599,0.530027627945,"(0.000872665, 0.0, 0.0, 0.0, 0.000872665, 0.0, 0.0, 0.0, 0.000872665)",0.0233537062258,-0.678387966603,-0.575299946666,"(0.003, 0.0, 0.0, 0.0, 0.003, 0.0, 0.0, 0.0, 0.003)",,
2022/03/09/18:22:21.784844,8747,1646846536,5.781056537,1646846541.78106,-0.0062082730125,0.0153902008094,-0.937781881518,0.346828115587,"(0.00872665, 0.0, 0.0, 0.0, 0.00872665, 0.0, 0.0, 0.0, 0.00872665)",0.641127884388,0.152140244842,0.514175057411,"(0.000872665, 0.0, 0.0, 0.0, 0.000872665, 0.0, 0.0, 0.0, 0.000872665)",-0.0336892811581,-0.464106699117,-0.636191681027,"(0.003, 0.0, 0.0, 0.0, 0.003, 0.0, 0.0, 0.0, 0.003)",,
2022/03/09/18:22:21.810498,8748,1646846536,5.809969789,1646846541.80997,0.00325855022358,0.0167183487517,-0.934952073071,0.354364924513,"(0.00872665, 0.0, 0.0, 0.0, 0.00872665, 0.0, 0.0, 0.0, 0.00872665)",0.657433092594,0.139977067709,0.506304860115,"(0.000872665, 0.0, 0.0, 0.0, 0.000872665, 0.0, 0.0, 0.0, 0.000872665)",-0.0952899173275,-0.190577952582,-0.640971195102,"(0.003, 0.0, 0.0, 0.0, 0.003, 0.0, 0.0, 0.0, 0.003)",,
2022/03/09/18:22:21.847483,8749,1646846536,5.847062335,1646846541.84706,0.0128024706551,0.0186073473859,-0.932002166077,0.36174829066,"(0.00872665, 0.0, 0.0, 0.0, 0.00872665, 0.0, 0.0, 0.0, 0.00872665)",0.667649924755,0.124386936426,0.510131835938,"(0.000872665, 0.0, 0.0, 0.0, 0.000872665, 0.0, 0.0, 0.0, 0.000872665)",-0.151780123562,0.0923885289207,-0.673129711747,"(0.003, 0.0, 0.0, 0.0, 0.003, 0.0, 0.0, 0.0, 0.003)",,
2022/03/09/18:22:21.870898,8750,1646846536,5.870457475,1646846541.87046,0.0222266103979,0.0210456390752,-0.92883914392,0.369216607954,"(0.00872665, 0.0, 0.0, 0.0, 0.00872665, 0.0, 0.0, 0.0, 0.00872665)",0.666589975357,0.107486389577,0.537009954453,"(0.000872665, 0.0, 0.0, 0.0, 0.000872665, 0.0, 0.0, 0.0, 0.000872665)",-0.173405447658,0.376085455567,-0.651416076422,"(0.003, 0.0, 0.0, 0.0, 0.003, 0.0, 0.0, 0.0, 0.003)",,
2022/03/09/18:22:21.901328,8751,1646846536,5.899735927,1646846541.89974,0.0313265263247,0.0240013429773,-0.92533716288,0.377085824815,"(0.00872665, 0.0, 0.0, 0.0, 0.00872665, 0.0, 0.0, 0.0, 0.00872665)",0.650649189949,0.0931245833635,0.581207692623,"(0.000872665, 0.0, 0.0, 0.0, 0.000872665, 0.0, 0.0, 0.0, 0.000872665)",-0.182516652178,0.685684049204,-0.634999433756,"(0.003, 0.0, 0.0, 0.0, 0.003, 0.0, 0.0, 0.0, 0.003)",,
2022/03/09/18:22:21.931849,8752,1646846536,5.929549291,1646846541.92955,0.0399046252342,0.0275040427426,-0.921356231376,0.385686198123,"(0.00872665, 0.0, 0.0, 0.0, 0.00872665, 0.0, 0.0, 0.0, 0.00872665)",0.629510462284,0.0739175677299,0.645410895348,"(0.000872665, 0.0, 0.0, 0.0, 0.000872665, 0.0, 0.0, 0.0, 0.000872665)",-0.160734366886,0.928584915698,-0.60517161727,"(0.003, 0.0, 0.0, 0.0, 0.003, 0.0, 0.0, 0.0, 0.003)",,
2022/03/09/18:22:21.963377,8753,1646846536,5.96275022,1646846541.96275,0.0477777263829,0.0315415770944,-0.916855723473,0.395092394398,"(0.00872665, 0.0, 0.0, 0.0, 0.00872665, 0.0, 0.0, 0.0, 0.00872665)",0.597127795219,0.05456931144,0.715696632862,"(0.000872665, 0.0, 0.0, 0.0, 0.000872665, 0.0, 0.0, 0.0, 0.000872665)",-0.165064595528,1.22386075459,-0.555434616208,"(0.003, 0.0, 0.0, 0.0, 0.003, 0.0, 0.0, 0.0, 0.003)",,
2022/03/09/18:22:21.994036,8754,1646846536,5.990812599,1646846541.99081,0.05474995804,0.0361049447857,-0.911717722811,0.405548602474,"(0.00872665, 0.0, 0.0, 0.0, 0.00872665, 0.0, 0.0, 0.0, 0.00872665)",0.556616127491,0.0371274761856,0.797987401485,"(0.000872665, 0.0, 0.0, 0.0, 0.000872665, 0.0, 0.0, 0.0, 0.000872665)",-0.120758652817,1.45659842938,-0.503815396428,"(0.003, 0.0, 0.0, 0.0, 0.003, 0.0, 0.0, 0.0, 0.003)",,
2022/03/09/18:22:22.020679,8755,1646846536,6.19746757,1646846542.19747,0.0606818968168,0.0411458797416,-0.905904897929,0.417086369817,"(0.00872665, 0.0, 0.0, 0.0, 0.00872665, 0.0, 0.0, 0.0, 0.00872665)",0.508499383926,0.0233631767333,0.879245460033,"(0.000872665, 0.0, 0.0, 0.0, 0.000872665, 0.0, 0.0, 0.0, 0.000872665)",-0.0797500281036,1.67870900899,-0.470553510189,"(0.003, 0.0, 0.0, 0.0, 0.003, 0.0, 0.0, 0.0, 0.003)",,
2022/03/09/18:22:22.051255,8756,1646846536,6.50701841,1646846542.50702,0.0654744175498,0.0465725427516,-0.899425417811,0.429625437683,"(0.00872665, 0.0, 0.0, 0.0, 0.00872665, 0.0, 0.0, 0.0, 0.00872665)",0.454705715179,0.010585507378,0.941846251488,"(0.000872665, 0.0, 0.0, 0.0, 0.000872665, 0.0, 0.0, 0.0, 0.000872665)",-0.0292758027837,1.86696669504,-0.39700255394,"(0.003, 0.0, 0.0, 0.0, 0.003, 0.0, 0.0, 0.0, 0.003)",,
2022/03/09/18:22:22.084482,8757,1646846536,6.82485985,1646846542.82486,0.0690646061293,0.052269944759,-0.892366769463,0.442921530085,"(0.00872665, 0.0, 0.0, 0.0, 0.00872665, 0.0, 0.0, 0.0, 0.00872665)",0.402801036835,0.0016685789451,0.990081310272,"(0.000872665, 0.0, 0.0, 0.0, 0.000872665, 0.0, 0.0, 0.0, 0.000872665)",0.0301164131239,2.00696643323,-0.36962764442,"(0.003, 0.0, 0.0, 0.0, 0.003, 0.0, 0.0, 0.0, 0.003)",,
2022/03/09/18:22:22.109472,8758,1646846536,6.109013215,1646846542.10901,0.0714910488163,0.0580658433883,-0.884835825701,0.45670882335,"(0.00872665, 0.0, 0.0, 0.0, 0.00872665, 0.0, 0.0, 0.0, 0.00872665)",0.347222805023,-0.00718941166997,1.02239596844,"(0.000872665, 0.0, 0.0, 0.0, 0.000872665, 0.0, 0.0, 0.0, 0.000872665)",0.089772923179,2.11319309235,-0.326445956826,"(0.003, 0.0, 0.0, 0.0, 0.003, 0.0, 0.0, 0.0, 0.003)",,
2022/03/09/18:22:22.141104,8759,1646846536,6.138549903,1646846542.13855,0.0728205966337,0.0637982080965,-0.876985500031,0.47066270522,"(0.00872665, 0.0, 0.0, 0.0, 0.00872665, 0.0, 0.0, 0.0, 0.00872665)",0.300035059452,-0.0117430239916,1.02339756489,"(0.000872665, 0.0, 0.0, 0.0, 0.000872665, 0.0, 0.0, 0.0, 0.000872665)",0.139679530039,2.19448941663,-0.295566810966,"(0.003, 0.0, 0.0, 0.0, 0.003, 0.0, 0.0, 0.0, 0.003)",,
2022/03/09/18:22:22.171025,8760,1646846536,6.16932155,1646846542.16932,0.0731800617758,0.0692961356072,-0.869015502475,0.484411788261,"(0.00872665, 0.0, 0.0, 0.0, 0.00872665, 0.0, 0.0, 0.0, 0.00872665)",0.249033391476,-0.0149271413684,1.00168097019,"(0.000872665, 0.0, 0.0, 0.0, 0.000872665, 0.0, 0.0, 0.0, 0.000872665)",0.196940289661,2.23549272403,-0.266645312905,"(0.003, 0.0, 0.0, 0.0, 0.003, 0.0, 0.0, 0.0, 0.003)",,
2022/03/09/18:22:22.203206,8761,1646846536,6.201242107,1646846542.20124,0.0727152296063,0.0744022277316,-0.861156077065,0.497581164058,"(0.00872665, 0.0, 0.0, 0.0, 0.00872665, 0.0, 0.0, 0.0, 0.00872665)",0.201430350542,-0.0193304605782,0.951656758785,"(0.000872665, 0.0, 0.0, 0.0, 0.000872665, 0.0, 0.0, 0.0, 0.000872665)",0.233457393944,2.26300182715,-0.247827218771,"(0.003, 0.0, 0.0, 0.0, 0.003, 0.0, 0.0, 0.0, 0.003)",,
2022/03/09/18:22:22.234434,8762,1646846536,6.229911247,1646846542.22991,0.0716751902098,0.0789573794208,-0.853657518356,0.509801177615,"(0.00872665, 0.0, 0.0, 0.0, 0.00872665, 0.0, 0.0, 0.0, 0.00872665)",0.158148676157,-0.0170869342983,0.876017034054,"(0.000872665, 0.0, 0.0, 0.0, 0.000872665, 0.0, 0.0, 0.0, 0.000872665)",0.276954027191,2.28481281862,-0.237779948115,"(0.003, 0.0, 0.0, 0.0, 0.003, 0.0, 0.0, 0.0, 0.003)",,
2022/03/09/18:22:22.260681,8763,1646846536,6.257389453,1646846542.25739,0.0702181138594,0.0828397455498,-0.846786477939,0.52072992407,"(0.00872665, 0.0, 0.0, 0.0, 0.00872665, 0.0, 0.0, 0.0, 0.00872665)",0.111851148307,-0.0167942009866,0.772686600685,"(0.000872665, 0.0, 0.0, 0.0, 0.000872665, 0.0, 0.0, 0.0, 0.000872665)",0.304881937131,2.29376651376,-0.199195341468,"(0.003, 0.0, 0.0, 0.0, 0.003, 0.0, 0.0, 0.0, 0.003)",,
2022/03/09/18:22:22.289911,8764,1646846536,6.289256863,1646846542.28926,0.0685242059524,0.0860023717151,-0.840749349877,0.530140128588,"(0.00872665, 0.0, 0.0, 0.0, 0.00872665, 0.0, 0.0, 0.0, 0.00872665)",0.0748007297516,-0.0100759873167,0.652091741562,"(0.000872665, 0.0, 0.0, 0.0, 0.000872665, 0.0, 0.0, 0.0, 0.000872665)",0.329589858502,2.29207593754,-0.204761890769,"(0.003, 0.0, 0.0, 0.0, 0.003, 0.0, 0.0, 0.0, 0.003)",,
2022/03/09/18:22:22.321142,8765,1646846536,6.320465176,1646846542.32047,0.0667821605068,0.0883578372754,-0.835761028029,0.53780715843,"(0.00872665, 0.0, 0.0, 0.0, 0.00872665, 0.0, 0.0, 0.0, 0.00872665)",0.0320966057479,-0.00747468695045,0.523926496506,"(0.000872665, 0.0, 0.0, 0.0, 0.000872665, 0.0, 0.0, 0.0, 0.000872665)",0.34945891656,2.30612153426,-0.192926541567,"(0.003, 0.0, 0.0, 0.0, 0.003, 0.0, 0.0, 0.0, 0.003)",,
2022/03/09/18:22:22.347438,8766,1646846536,6.347012675,1646846542.34701,0.0650233798391,0.0898754772802,-0.83192410271,0.543688004271,"(0.00872665, 0.0, 0.0, 0.0, 0.00872665, 0.0, 0.0, 0.0, 0.00872665)",-0.00980687700212,-0.00378174707294,0.386429011822,"(0.000872665, 0.0, 0.0, 0.0, 0.000872665, 0.0, 0.0, 0.0, 0.000872665)",0.383723892644,2.33544429749,-0.17692037344,"(0.003, 0.0, 0.0, 0.0, 0.003, 0.0, 0.0, 0.0, 0.003)",,
2022/03/09/18:22:22.376586,8767,1646846536,6.376154194,1646846542.37615,0.0632717288638,0.09052590158,-0.829284597378,0.547803619942,"(0.00872665, 0.0, 0.0, 0.0, 0.00872665, 0.0, 0.0, 0.0, 0.00872665)",-0.0613171420991,0.00235599093139,0.261228859425,"(0.000872665, 0.0, 0.0, 0.0, 0.000872665, 0.0, 0.0, 0.0, 0.000872665)",0.410113838688,2.35809070989,-0.170023582578,"(0.003, 0.0, 0.0, 0.0, 0.003, 0.0, 0.0, 0.0, 0.003)",,
2022/03/09/18:22:22.409324,8768,1646846536,6.408098856,1646846542.4081,0.0614413316815,0.0902764957424,-0.82778792452,0.550311065758,"(0.00872665, 0.0, 0.0, 0.0, 0.00872665, 0.0, 0.0, 0.0, 0.00872665)",-0.113031499088,0.0116755766794,0.146723121405,"(0.000872665, 0.0, 0.0, 0.0, 0.000872665, 0.0, 0.0, 0.0, 0.000872665)",0.447597926259,2.36463988379,-0.166456196308,"(0.003, 0.0, 0.0, 0.0, 0.003, 0.0, 0.0, 0.0, 0.003)",,
2022/03/09/18:22:22.440857,8769,1646846536,6.440159084,1646846542.44016,0.0594266236924,0.0891538786489,-0.827300170959,0.551447630741,"(0.00872665, 0.0, 0.0, 0.0, 0.00872665, 0.0, 0.0, 0.0, 0.00872665)",-0.174127653241,0.0193655751646,0.0560490265489,"(0.000872665, 0.0, 0.0, 0.0, 0.000872665, 0.0, 0.0, 0.0, 0.000872665)",0.481871600077,2.35399897456,-0.171797043085,"(0.003, 0.0, 0.0, 0.0, 0.003, 0.0, 0.0, 0.0, 0.003)",,
2022/03/09/18:22:22.467802,8770,1646846536,6.466077626,1646846542.46608,0.0571212664083,0.087141623349,-0.827677611182,0.551446525378,"(0.00872665, 0.0, 0.0, 0.0, 0.00872665, 0.0, 0.0, 0.0, 0.00872665)",-0.236834019423,0.0345127470791,-0.0226585064083,"(0.000872665, 0.0, 0.0, 0.0, 0.000872665, 0.0, 0.0, 0.0, 0.000872665)",0.507580345497,2.31843080029,-0.19324521482,"(0.003, 0.0, 0.0, 0.0, 0.003, 0.0, 0.0, 0.0, 0.003)",,
2022/03/09/18:22:22.497824,8771,1646846536,6.495457346,1646846542.49546,0.0543904258652,0.0842273180906,-0.828781800849,0.550516273186,"(0.00872665, 0.0, 0.0, 0.0, 0.00872665, 0.0, 0.0, 0.0, 0.00872665)",-0.29352080822,0.0466706603765,-0.0823365747929,"(0.000872665, 0.0, 0.0, 0.0, 0.000872665, 0.0, 0.0, 0.0, 0.000872665)",0.531237887666,2.23755401373,-0.215193908215,"(0.003, 0.0, 0.0, 0.0, 0.003, 0.0, 0.0, 0.0, 0.003)",,
2022/03/09/18:22:22.529412,8772,1646846536,6.52897866,1646846542.52898,0.0510672838175,0.0803946760962,-0.830486629413,0.548835846994,"(0.00872665, 0.0, 0.0, 0.0, 0.00872665, 0.0, 0.0, 0.0, 0.00872665)",-0.35976344347,0.0605741590261,-0.13446162641,"(0.000872665, 0.0, 0.0, 0.0, 0.000872665, 0.0, 0.0, 0.0, 0.000872665)",0.529540733323,2.12291628107,-0.243240078092,"(0.003, 0.0, 0.0, 0.0, 0.003, 0.0, 0.0, 0.0, 0.003)",,
2022/03/09/18:22:22.564470,8773,1646846536,6.561584365,1646846542.56158,0.047367465225,0.0758928783098,-0.832682436356,0.546476490294,"(0.00872665, 0.0, 0.0, 0.0, 0.00872665, 0.0, 0.0, 0.0, 0.00872665)",-0.413885980844,0.0726534277201,-0.182042211294,"(0.000872665, 0.0, 0.0, 0.0, 0.000872665, 0.0, 0.0, 0.0, 0.000872665)",0.514513023645,1.98903126866,-0.265550714135,"(0.003, 0.0, 0.0, 0.0, 0.003, 0.0, 0.0, 0.0, 0.003)",,
2022/03/09/18:22:22.587452,8774,1646846536,6.585849561,1646846542.58585,0.04328267191,0.0708263010634,-0.835315028441,0.543469455123,"(0.00872665, 0.0, 0.0, 0.0, 0.00872665, 0.0, 0.0, 0.0, 0.00872665)",-0.467072367668,0.0863037481904,-0.231393918395,"(0.000872665, 0.0, 0.0, 0.0, 0.000872665, 0.0, 0.0, 0.0, 0.000872665)",0.478155182898,1.81274180979,-0.327078040838,"(0.003, 0.0, 0.0, 0.0, 0.003, 0.0, 0.0, 0.0, 0.003)",,
2022/03/09/18:22:22.616416,8775,1646846536,6.61548298,1646846542.61548,0.0387588915771,0.0651645524008,-0.838365255876,0.539810176983,"(0.00872665, 0.0, 0.0, 0.0, 0.00872665, 0.0, 0.0, 0.0, 0.00872665)",-0.515007674694,0.0979775935411,-0.281944692135,"(0.000872665, 0.0, 0.0, 0.0, 0.000872665, 0.0, 0.0, 0.0, 0.000872665)",0.422321801707,1.60432131618,-0.383874970078,"(0.003, 0.0, 0.0, 0.0, 0.003, 0.0, 0.0, 0.0, 0.003)",,
2022/03/09/18:22:22.648215,8776,1646846536,6.647504312,1646846542.6475,0.033802309124,0.0590620191977,-0.841831953209,0.53543257684,"(0.00872665, 0.0, 0.0, 0.0, 0.00872665, 0.0, 0.0, 0.0, 0.00872665)",-0.553278923035,0.107085980475,-0.340917378664,"(0.000872665, 0.0, 0.0, 0.0, 0.000872665, 0.0, 0.0, 0.0, 0.000872665)",0.352768440619,1.38428386688,-0.434393743873,"(0.003, 0.0, 0.0, 0.0, 0.003, 0.0, 0.0, 0.0, 0.003)",,
2022/03/09/18:22:22.677236,8777,1646846536,6.674823512,1646846542.67482,0.0284889215101,0.0526434296556,-0.845746223702,0.530217291079,"(0.00872665, 0.0, 0.0, 0.0, 0.00872665, 0.0, 0.0, 0.0, 0.00872665)",-0.582562327385,0.106369309127,-0.410426944494,"(0.000872665, 0.0, 0.0, 0.0, 0.000872665, 0.0, 0.0, 0.0, 0.000872665)",0.270162120759,1.13728081316,-0.477450885773,"(0.003, 0.0, 0.0, 0.0, 0.003, 0.0, 0.0, 0.0, 0.003)",,
2022/03/09/18:22:22.704700,8778,1646846536,6.704138804,1646846542.70414,0.022878133095,0.0461028384574,-0.850174695465,0.523979108842,"(0.00872665, 0.0, 0.0, 0.0, 0.00872665, 0.0, 0.0, 0.0, 0.00872665)",-0.603226959705,0.103749342263,-0.501035749912,"(0.000872665, 0.0, 0.0, 0.0, 0.000872665, 0.0, 0.0, 0.0, 0.000872665)",0.170222351365,0.869945455715,-0.524837306142,"(0.003, 0.0, 0.0, 0.0, 0.003, 0.0, 0.0, 0.0, 0.003)",,
2022/03/09/18:22:22.736740,8779,1646846536,6.734161546,1646846542.73416,0.0169986236276,0.0396332521123,-0.855164065051,0.51656042625,"(0.00872665, 0.0, 0.0, 0.0, 0.00872665, 0.0, 0.0, 0.0, 0.00872665)",-0.610720515251,0.0960598140955,-0.592033326626,"(0.000872665, 0.0, 0.0, 0.0, 0.000872665, 0.0, 0.0, 0.0, 0.000872665)",0.096023815982,0.589140671566,-0.548872286081,"(0.003, 0.0, 0.0, 0.0, 0.003, 0.0, 0.0, 0.0, 0.003)",,
2022/03/09/18:22:22.770273,8780,1646846536,6.768176929,1646846542.76818,0.0109384448915,0.033429702518,-0.860676472448,0.507935837668,"(0.00872665, 0.0, 0.0, 0.0, 0.00872665, 0.0, 0.0, 0.0, 0.00872665)",-0.608202934265,0.0822585970163,-0.688973248005,"(0.000872665, 0.0, 0.0, 0.0, 0.000872665, 0.0, 0.0, 0.0, 0.000872665)",0.0336768192798,0.322966753878,-0.562853563428,"(0.003, 0.0, 0.0, 0.0, 0.003, 0.0, 0.0, 0.0, 0.003)",,
2022/03/09/18:22:22.794412,8781,1646846536,6.793900773,1646846542.7939,0.00472790214875,0.0276804967639,-0.866698278569,0.498041696012,"(0.00872665, 0.0, 0.0, 0.0, 0.00872665, 0.0, 0.0, 0.0, 0.00872665)",-0.596890389919,0.0671496763825,-0.784053564072,"(0.000872665, 0.0, 0.0, 0.0, 0.000872665, 0.0, 0.0, 0.0, 0.000872665)",-0.0107983455062,0.0757497286052,-0.575756614208,"(0.003, 0.0, 0.0, 0.0, 0.003, 0.0, 0.0, 0.0, 0.003)",,
2022/03/09/18:22:22.825611,8782,1646846536,6.823897548,1646846542.8239,-0.00158412410593,0.0225165953991,-0.873181446674,0.48687231865,"(0.00872665, 0.0, 0.0, 0.0, 0.00872665, 0.0, 0.0, 0.0, 0.00872665)",-0.586931467056,0.0485399514437,-0.875353038311,"(0.000872665, 0.0, 0.0, 0.0, 0.000872665, 0.0, 0.0, 0.0, 0.000872665)",-0.0412987745181,-0.151096364781,-0.569233460426,"(0.003, 0.0, 0.0, 0.0, 0.003, 0.0, 0.0, 0.0, 0.003)",,
2022/03/09/18:22:22.853473,8783,1646846536,6.853012085,1646846542.85301,-0.00798603047013,0.0180509203539,-0.880041131081,0.474487086439,"(0.00872665, 0.0, 0.0, 0.0, 0.00872665, 0.0, 0.0, 0.0, 0.00872665)",-0.567468881607,0.0345720723271,-0.957989752293,"(0.000872665, 0.0, 0.0, 0.0, 0.000872665, 0.0, 0.0, 0.0, 0.000872665)",-0.0453837124631,-0.346763167419,-0.556851981282,"(0.003, 0.0, 0.0, 0.0, 0.003, 0.0, 0.0, 0.0, 0.003)",,
2022/03/09/18:22:22.890509,8784,1646846536,6.888876992,1646846542.88888,-0.0144350935872,0.0143651050731,-0.887159676317,0.461012993901,"(0.00872665, 0.0, 0.0, 0.0, 0.00872665, 0.0, 0.0, 0.0, 0.00872665)",-0.544844448566,0.0177234709263,-1.02349126339,"(0.000872665, 0.0, 0.0, 0.0, 0.000872665, 0.0, 0.0, 0.0, 0.000872665)",-0.0281941044331,-0.507672292963,-0.544471671581,"(0.003, 0.0, 0.0, 0.0, 0.003, 0.0, 0.0, 0.0, 0.003)",,
2022/03/09/18:22:22.913812,8785,1646846536,6.913249856,1646846542.91325,-0.0209178779247,0.0114633912785,-0.894382183424,0.446667150143,"(0.00872665, 0.0, 0.0, 0.0, 0.00872665, 0.0, 0.0, 0.0, 0.00872665)",-0.532734870911,0.000538283959031,-1.070972085,"(0.000872665, 0.0, 0.0, 0.0, 0.000872665, 0.0, 0.0, 0.0, 0.000872665)",0.00426309529692,-0.652350315303,-0.519056748748,"(0.003, 0.0, 0.0, 0.0, 0.003, 0.0, 0.0, 0.0, 0.003)",,
2022/03/09/18:22:22.944346,8786,1646846536,6.942977667,1646846542.94298,-0.0274409180419,0.00935383756688,-0.901557306425,0.431687299989,"(0.00872665, 0.0, 0.0, 0.0, 0.00872665, 0.0, 0.0, 0.0, 0.00872665)",-0.511184334755,-0.0158783197403,-1.09696257114,"(0.000872665, 0.0, 0.0, 0.0, 0.000872665, 0.0, 0.0, 0.0, 0.000872665)",0.0568807271495,-0.789968774915,-0.497290488482,"(0.003, 0.0, 0.0, 0.0, 0.003, 0.0, 0.0, 0.0, 0.003)",,
2022/03/09/18:22:22.972548,8787,1646846536,6.972128775,1646846542.97213,-0.0339755238464,0.00799287564775,-0.908528049663,0.416363495871,"(0.00872665, 0.0, 0.0, 0.0, 0.00872665, 0.0, 0.0, 0.0, 0.00872665)",-0.498007297516,-0.0280224550515,-1.09435021877,"(0.000872665, 0.0, 0.0, 0.0, 0.000872665, 0.0, 0.0, 0.0, 0.000872665)",0.122740913741,-0.918894179016,-0.478506308198,"(0.003, 0.0, 0.0, 0.0, 0.003, 0.0, 0.0, 0.0, 0.003)",,
2022/03/09/18:22:23.009403,8788,1646846536,7.7565616,1646846543.75656,-0.040473043804,0.00729451706634,-0.915140462013,0.40103199066,"(0.00872665, 0.0, 0.0, 0.0, 0.00872665, 0.0, 0.0, 0.0, 0.00872665)",-0.483945310116,-0.0385990254581,-1.07239317894,"(0.000872665, 0.0, 0.0, 0.0, 0.000872665, 0.0, 0.0, 0.0, 0.000872665)",0.175943449885,-1.05220550649,-0.45949642539,"(0.003, 0.0, 0.0, 0.0, 0.003, 0.0, 0.0, 0.0, 0.003)",,
2022/03/09/18:22:23.033691,8789,1646846536,7.32349487,1646846543.3235,-0.0468897867394,0.00717114668696,-0.921294147634,0.385962454248,"(0.00872665, 0.0, 0.0, 0.0, 0.00872665, 0.0, 0.0, 0.0, 0.00872665)",-0.468284964561,-0.045935858041,-1.03079485893,"(0.000872665, 0.0, 0.0, 0.0, 0.000872665, 0.0, 0.0, 0.0, 0.000872665)",0.247743165046,-1.18066145226,-0.422858941555,"(0.003, 0.0, 0.0, 0.0, 0.003, 0.0, 0.0, 0.0, 0.003)",,
2022/03/09/18:22:23.062931,8790,1646846536,7.62473474,1646846543.62473,-0.0531528609366,0.0075547719982,-0.92691857086,0.371402291039,"(0.00872665, 0.0, 0.0, 0.0, 0.00872665, 0.0, 0.0, 0.0, 0.00872665)",-0.450289815664,-0.051363799721,-0.977413535118,"(0.000872665, 0.0, 0.0, 0.0, 0.000872665, 0.0, 0.0, 0.0, 0.000872665)",0.289101836979,-1.33207130089,-0.388111277819,"(0.003, 0.0, 0.0, 0.0, 0.003, 0.0, 0.0, 0.0, 0.003)",,
2022/03/09/18:22:23.092059,8791,1646846536,7.91631022,1646846543.91631,-0.0591756464596,0.00835482144264,-0.931980140536,0.357549237829,"(0.00872665, 0.0, 0.0, 0.0, 0.00872665, 0.0, 0.0, 0.0, 0.00872665)",-0.427378535271,-0.0556901171803,-0.908732116222,"(0.000872665, 0.0, 0.0, 0.0, 0.000872665, 0.0, 0.0, 0.0, 0.000872665)",0.368958905675,-1.49122169361,-0.375139814615,"(0.003, 0.0, 0.0, 0.0, 0.003, 0.0, 0.0, 0.0, 0.003)",,
2022/03/09/18:22:23.127413,8792,1646846536,7.126900005,1646846543.1269,-0.064865559835,0.0094765356178,-0.936474894925,0.344553951647,"(0.00872665, 0.0, 0.0, 0.0, 0.00872665, 0.0, 0.0, 0.0, 0.00872665)",-0.399419039488,-0.0573142655194,-0.839803397655,"(0.000872665, 0.0, 0.0, 0.0, 0.000872665, 0.0, 0.0, 0.0, 0.000872665)",0.422064999305,-1.65151550934,-0.353903312087,"(0.003, 0.0, 0.0, 0.0, 0.003, 0.0, 0.0, 0.0, 0.003)",,
2022/03/09/18:22:23.153724,8793,1646846536,7.151555987,1646846543.15156,-0.0701317099679,0.0108275355274,-0.940432838494,0.33249117885,"(0.00872665, 0.0, 0.0, 0.0, 0.00872665, 0.0, 0.0, 0.0, 0.00872665)",-0.363706082106,-0.0557353645563,-0.768654823303,"(0.000872665, 0.0, 0.0, 0.0, 0.000872665, 0.0, 0.0, 0.0, 0.000872665)",0.480950882882,-1.83007705003,-0.312705584764,"(0.003, 0.0, 0.0, 0.0, 0.003, 0.0, 0.0, 0.0, 0.003)",,
2022/03/09/18:22:23.182525,8794,1646846536,7.180903457,1646846543.1809,-0.0748361985557,0.0123581367511,-0.943899873872,0.321402937052,"(0.00872665, 0.0, 0.0, 0.0, 0.00872665, 0.0, 0.0, 0.0, 0.00872665)",-0.324185937643,-0.0552831739187,-0.695805311203,"(0.000872665, 0.0, 0.0, 0.0, 0.000872665, 0.0, 0.0, 0.0, 0.000872665)",0.525040716156,-1.98368179724,-0.277385478616,"(0.003, 0.0, 0.0, 0.0, 0.003, 0.0, 0.0, 0.0, 0.003)",,
2022/03/09/18:22:23.211954,8795,1646846536,7.210492061,1646846543.21049,-0.0788914162177,0.0140293648754,-0.946936716253,0.311271869562,"(0.00872665, 0.0, 0.0, 0.0, 0.00872665, 0.0, 0.0, 0.0, 0.00872665)",-0.27358981967,-0.0483798533678,-0.634296059608,"(0.000872665, 0.0, 0.0, 0.0, 0.000872665, 0.0, 0.0, 0.0, 0.000872665)",0.572255740017,-2.15228143662,-0.244377361536,"(0.003, 0.0, 0.0, 0.0, 0.003, 0.0, 0.0, 0.0, 0.003)",,
2022/03/09/18:22:23.248926,8796,1646846536,7.247228083,1646846543.24723,-0.0821746438229,0.0157446144449,-0.949586312852,0.302134522147,"(0.00872665, 0.0, 0.0, 0.0, 0.00872665, 0.0, 0.0, 0.0, 0.00872665)",-0.218846008182,-0.0411509051919,-0.567264735699,"(0.000872665, 0.0, 0.0, 0.0, 0.000872665, 0.0, 0.0, 0.0, 0.000872665)",0.619990727529,-2.2784568952,-0.221775534153,"(0.003, 0.0, 0.0, 0.0, 0.003, 0.0, 0.0, 0.0, 0.003)",,
2022/03/09/18:22:23.271393,8797,1646846536,7.270702679,1646846543.2707,-0.0845646255156,0.0174405794026,-0.951898950719,0.29399496241,"(0.00872665, 0.0, 0.0, 0.0, 0.00872665, 0.0, 0.0, 0.0, 0.00872665)",-0.156613528728,-0.0259488150477,-0.506169378757,"(0.000872665, 0.0, 0.0, 0.0, 0.000872665, 0.0, 0.0, 0.0, 0.000872665)",0.675046429038,-2.3843683894,-0.193126516342,"(0.003, 0.0, 0.0, 0.0, 0.003, 0.0, 0.0, 0.0, 0.003)",,
2022/03/09/18:22:23.300639,8798,1646846536,7.300061769,1646846543.30006,-0.0860303682293,0.0190271500415,-0.953907081728,0.286876319573,"(0.00872665, 0.0, 0.0, 0.0, 0.00872665, 0.0, 0.0, 0.0, 0.00872665)",-0.0938292294741,-0.0098382178694,-0.442168325186,"(0.000872665, 0.0, 0.0, 0.0, 0.000872665, 0.0, 0.0, 0.0, 0.000872665)",0.735097187608,-2.44531216398,-0.162194745541,"(0.003, 0.0, 0.0, 0.0, 0.003, 0.0, 0.0, 0.0, 0.003)",,
2022/03/09/18:22:23.331283,8799,1646846536,7.330870868,1646846543.33087,-0.0865121941195,0.0203965201526,-0.955624828085,0.280857277247,"(0.00872665, 0.0, 0.0, 0.0, 0.00872665, 0.0, 0.0, 0.0, 0.00872665)",-0.0241646319628,0.00651626568288,-0.371312081814,"(0.000872665, 0.0, 0.0, 0.0, 0.000872665, 0.0, 0.0, 0.0, 0.000872665)",0.785043957531,-2.4697595188,-0.154257150292,"(0.003, 0.0, 0.0, 0.0, 0.003, 0.0, 0.0, 0.0, 0.003)",,
2022/03/09/18:22:23.361714,8800,1646846536,7.361293176,1646846543.36129,-0.0860217802465,0.0214271784274,-0.95704471748,0.276055317086,"(0.00872665, 0.0, 0.0, 0.0, 0.00872665, 0.0, 0.0, 0.0, 0.00872665)",0.0373777039349,0.0342976674438,-0.295098185539,"(0.000872665, 0.0, 0.0, 0.0, 0.000872665, 0.0, 0.0, 0.0, 0.000872665)",0.82828726016,-2.45915062308,-0.138324072361,"(0.003, 0.0, 0.0, 0.0, 0.003, 0.0, 0.0, 0.0, 0.003)",,
2022/03/09/18:22:23.390439,8801,1646846536,7.38994526,1646846543.38995,-0.0845607414783,0.0220426868221,-0.958162049934,0.272560244763,"(0.00872665, 0.0, 0.0, 0.0, 0.00872665, 0.0, 0.0, 0.0, 0.00872665)",0.104733891785,0.0572388470173,-0.214401930571,"(0.000872665, 0.0, 0.0, 0.0, 0.000872665, 0.0, 0.0, 0.0, 0.000872665)",0.847422785014,-2.41767734572,-0.137851032615,"(0.003, 0.0, 0.0, 0.0, 0.003, 0.0, 0.0, 0.0, 0.003)",,
2022/03/09/18:22:23.421142,8802,1646846536,7.419584708,1646846543.41958,-0.0821806672781,0.0221820410074,-0.958960964871,0.270459170369,"(0.00872665, 0.0, 0.0, 0.0, 0.00872665, 0.0, 0.0, 0.0, 0.00872665)",0.167838439345,0.0834547504783,-0.128733500838,"(0.000872665, 0.0, 0.0, 0.0, 0.000872665, 0.0, 0.0, 0.0, 0.000872665)",0.80703146182,-2.34924372643,-0.152039886117,"(0.003, 0.0, 0.0, 0.0, 0.003, 0.0, 0.0, 0.0, 0.003)",,
2022/03/09/18:22:23.449903,8803,1646846536,7.448885384,1646846543.44889,-0.0789563399785,0.0218853193611,-0.95943628614,0.269757190842,"(0.00872665, 0.0, 0.0, 0.0, 0.00872665, 0.0, 0.0, 0.0, 0.00872665)",0.220443576574,0.102053657174,-0.0403359532356,"(0.000872665, 0.0, 0.0, 0.0, 0.000872665, 0.0, 0.0, 0.0, 0.000872665)",0.769235352203,-2.24972718582,-0.164941182733,"(0.003, 0.0, 0.0, 0.0, 0.003, 0.0, 0.0, 0.0, 0.003)",,
2022/03/09/18:22:23.484716,8804,1646846536,7.483047759,1646846543.48305,-0.0749544435924,0.0211787775269,-0.959572949185,0.270468197688,"(0.00872665, 0.0, 0.0, 0.0, 0.00872665, 0.0, 0.0, 0.0, 0.00872665)",0.276306629181,0.124478943646,0.0464480631053,"(0.000872665, 0.0, 0.0, 0.0, 0.000872665, 0.0, 0.0, 0.0, 0.000872665)",0.7056199117,-2.12624743983,-0.211237097383,"(0.003, 0.0, 0.0, 0.0, 0.003, 0.0, 0.0, 0.0, 0.003)",,
2022/03/09/18:22:23.509493,8805,1646846536,7.509063949,1646846543.50906,-0.0702568487883,0.0201589233937,-0.959362887411,0.272544387697,"(0.00872665, 0.0, 0.0, 0.0, 0.00872665, 0.0, 0.0, 0.0, 0.00872665)",0.320526719093,0.140179395676,0.13538967073,"(0.000872665, 0.0, 0.0, 0.0, 0.000872665, 0.0, 0.0, 0.0, 0.000872665)",0.623404989839,-1.9825317961,-0.245225792527,"(0.003, 0.0, 0.0, 0.0, 0.003, 0.0, 0.0, 0.0, 0.003)",,
2022/03/09/18:22:23.544077,8806,1646846536,7.538754318,1646846543.53875,-0.0649372563917,0.018881704674,-0.95878823581,0.275956070478,"(0.00872665, 0.0, 0.0, 0.0, 0.00872665, 0.0, 0.0, 0.0, 0.00872665)",0.361237585545,0.150129944086,0.224692612886,"(0.000872665, 0.0, 0.0, 0.0, 0.000872665, 0.0, 0.0, 0.0, 0.000872665)",0.536732077673,-1.81224231139,-0.275193942189,"(0.003, 0.0, 0.0, 0.0, 0.003, 0.0, 0.0, 0.0, 0.003)",,
2022/03/09/18:22:23.570081,8807,1646846536,7.569313062,1646846543.56931,-0.0590905835836,0.0174743994105,-0.957829733333,0.280651296523,"(0.00872665, 0.0, 0.0, 0.0, 0.00872665, 0.0, 0.0, 0.0, 0.00872665)",0.396136879921,0.154940992594,0.316485673189,"(0.000872665, 0.0, 0.0, 0.0, 0.000872665, 0.0, 0.0, 0.0, 0.000872665)",0.465755431205,-1.63291098475,-0.309509496689,"(0.003, 0.0, 0.0, 0.0, 0.003, 0.0, 0.0, 0.0, 0.003)",,
2022/03/09/18:22:23.604958,8808,1646846536,7.601381965,1646846543.60138,-0.0528076804325,0.0160504035098,-0.956468553931,0.286568733073,"(0.00872665, 0.0, 0.0, 0.0, 0.00872665, 0.0, 0.0, 0.0, 0.00872665)",0.428925186396,0.157469987869,0.398592203856,"(0.000872665, 0.0, 0.0, 0.0, 0.000872665, 0.0, 0.0, 0.0, 0.000872665)",0.381510575339,-1.44800448418,-0.336093277931,"(0.003, 0.0, 0.0, 0.0, 0.003, 0.0, 0.0, 0.0, 0.003)",,
2022/03/09/18:22:23.630006,8809,1646846536,7.628300998,1646846543.6283,-0.046174256618,0.0146940586688,-0.954706816087,0.293576085508,"(0.00872665, 0.0, 0.0, 0.0, 0.00872665, 0.0, 0.0, 0.0, 0.00872665)",0.45165976882,0.159751325846,0.479202181101,"(0.000872665, 0.0, 0.0, 0.0, 0.000872665, 0.0, 0.0, 0.0, 0.000872665)",0.299453857206,-1.26196830153,-0.372388699651,"(0.003, 0.0, 0.0, 0.0, 0.003, 0.0, 0.0, 0.0, 0.003)",,
2022/03/09/18:22:23.660047,8810,1646846536,7.657596696,1646846543.6576,-0.0392555723897,0.0135072370162,-0.95254642965,0.301549090442,"(0.00872665, 0.0, 0.0, 0.0, 0.00872665, 0.0, 0.0, 0.0, 0.00872665)",0.471529960632,0.153482005,0.545900046825,"(0.000872665, 0.0, 0.0, 0.0, 0.000872665, 0.0, 0.0, 0.0, 0.000872665)",0.233060477637,-1.07121473148,-0.389623952508,"(0.003, 0.0, 0.0, 0.0, 0.003, 0.0, 0.0, 0.0, 0.003)",,
2022/03/09/18:22:23.687640,8811,1646846536,7.687219873,1646846543.68722,-0.0321164144438,0.0126239870681,-0.949990098285,0.310367498353,"(0.00872665, 0.0, 0.0, 0.0, 0.00872665, 0.0, 0.0, 0.0, 0.00872665)",0.486802637577,0.144734352827,0.607637524605,"(0.000872665, 0.0, 0.0, 0.0, 0.000872665, 0.0, 0.0, 0.0, 0.000872665)",0.148852130324,-0.895213540345,-0.417643809915,"(0.003, 0.0, 0.0, 0.0, 0.003, 0.0, 0.0, 0.0, 0.003)",,
2022/03/09/18:22:23.720181,8812,1646846536,7.719755976,1646846543.71976,-0.0248238937918,0.0120822004457,-0.947067609436,0.319844865342,"(0.00872665, 0.0, 0.0, 0.0, 0.00872665, 0.0, 0.0, 0.0, 0.00872665)",0.498881936073,0.138531327248,0.650658488274,"(0.000872665, 0.0, 0.0, 0.0, 0.000872665, 0.0, 0.0, 0.0, 0.000872665)",0.076714592278,-0.718652478307,-0.431537963748,"(0.003, 0.0, 0.0, 0.0, 0.003, 0.0, 0.0, 0.0, 0.003)",,
2022/03/09/18:22:23.748936,8813,1646846536,7.747334183,1646846543.74733,-0.0173977797893,0.0119869307587,-0.943848962715,0.329701025676,"(0.00872665, 0.0, 0.0, 0.0, 0.00872665, 0.0, 0.0, 0.0, 0.00872665)",0.513952493668,0.131554499269,0.692812681198,"(0.000872665, 0.0, 0.0, 0.0, 0.000872665, 0.0, 0.0, 0.0, 0.000872665)",0.0343930666521,-0.588174053729,-0.492102254033,"(0.003, 0.0, 0.0, 0.0, 0.003, 0.0, 0.0, 0.0, 0.003)",,
2022/03/09/18:22:23.778508,8814,1646846536,7.776733097,1646846543.77673,-0.00991654667852,0.0124014257597,-0.940293943488,0.339992891956,"(0.00872665, 0.0, 0.0, 0.0, 0.00872665, 0.0, 0.0, 0.0, 0.00872665)",0.523324668407,0.117346800864,0.721938967705,"(0.000872665, 0.0, 0.0, 0.0, 0.000872665, 0.0, 0.0, 0.0, 0.000872665)",-0.057429305613,-0.381336839944,-0.462994229794,"(0.003, 0.0, 0.0, 0.0, 0.003, 0.0, 0.0, 0.0, 0.003)",,
2022/03/09/18:22:23.808650,8815,1646846536,7.808114768,1646846543.80811,-0.00240691992644,0.0133564289938,-0.936445409809,0.350550719566,"(0.00872665, 0.0, 0.0, 0.0, 0.00872665, 0.0, 0.0, 0.0, 0.00872665)",0.530849277973,0.103952340782,0.739735901356,"(0.000872665, 0.0, 0.0, 0.0, 0.000872665, 0.0, 0.0, 0.0, 0.000872665)",-0.0878702940233,-0.225991559364,-0.497736046314,"(0.003, 0.0, 0.0, 0.0, 0.003, 0.0, 0.0, 0.0, 0.003)",,
2022/03/09/18:22:23.842383,8816,1646846536,7.840468085,1646846543.84047,0.00505426972022,0.0148984681516,-0.932368762101,0.36116614108,"(0.00872665, 0.0, 0.0, 0.0, 0.00872665, 0.0, 0.0, 0.0, 0.00872665)",0.539411246777,0.0883961170912,0.750953495502,"(0.000872665, 0.0, 0.0, 0.0, 0.000872665, 0.0, 0.0, 0.0, 0.000872665)",-0.130612855721,-0.0571903737634,-0.514546206594,"(0.003, 0.0, 0.0, 0.0, 0.003, 0.0, 0.0, 0.0, 0.003)",,
2022/03/09/18:22:23.873471,8817,1646846536,7.87182168,1646846543.87182,0.0124734769003,0.01702173514,-0.928096611594,0.371740974948,"(0.00872665, 0.0, 0.0, 0.0, 0.00872665, 0.0, 0.0, 0.0, 0.00872665)",0.54528683424,0.0717960223556,0.745741963387,"(0.000872665, 0.0, 0.0, 0.0, 0.000872665, 0.0, 0.0, 0.0, 0.000872665)",-0.175752629656,0.131837134771,-0.498668092489,"(0.003, 0.0, 0.0, 0.0, 0.003, 0.0, 0.0, 0.0, 0.003)",,
2022/03/09/18:22:23.898036,8818,1646846536,7.896376412,1646846543.89638,0.0197466264623,0.0197268760487,-0.923663430858,0.382186849067,"(0.00872665, 0.0, 0.0, 0.0, 0.00872665, 0.0, 0.0, 0.0, 0.00872665)",0.545949041843,0.0574677586555,0.740379929543,"(0.000872665, 0.0, 0.0, 0.0, 0.000872665, 0.0, 0.0, 0.0, 0.000872665)",-0.178717752714,0.293666100428,-0.519436817765,"(0.003, 0.0, 0.0, 0.0, 0.003, 0.0, 0.0, 0.0, 0.003)",,
2022/03/09/18:22:23.927846,8819,1646846536,7.927390274,1646846543.92739,0.026831861012,0.022962858457,-0.919083920172,0.392476121627,"(0.00872665, 0.0, 0.0, 0.0, 0.00872665, 0.0, 0.0, 0.0, 0.00872665)",0.546696662903,0.0448743700981,0.739418447018,"(0.000872665, 0.0, 0.0, 0.0, 0.000872665, 0.0, 0.0, 0.0, 0.000872665)",-0.179036425967,0.478643937036,-0.502726060152,"(0.003, 0.0, 0.0, 0.0, 0.003, 0.0, 0.0, 0.0, 0.003)",,
2022/03/09/18:22:23.964396,8820,1646846536,7.962420766,1646846543.96242,0.0336373907429,0.0267104164655,-0.914348893107,0.402642746453,"(0.00872665, 0.0, 0.0, 0.0, 0.00872665, 0.0, 0.0, 0.0, 0.00872665)",0.540737867355,0.0257796980441,0.725127160549,"(0.000872665, 0.0, 0.0, 0.0, 0.000872665, 0.0, 0.0, 0.0, 0.000872665)",-0.190269310959,0.694695339426,-0.499184401631,"(0.003, 0.0, 0.0, 0.0, 0.003, 0.0, 0.0, 0.0, 0.003)",,
2022/03/09/18:22:23.987985,8821,1646846536,7.985690269,1646846543.98569,0.0401003923296,0.0308928293476,-0.90949697562,0.412617065774,"(0.00872665, 0.0, 0.0, 0.0, 0.00872665, 0.0, 0.0, 0.0, 0.00872665)",0.528766989708,0.0111624160782,0.721412479877,"(0.000872665, 0.0, 0.0, 0.0, 0.000872665, 0.0, 0.0, 0.0, 0.000872665)",-0.161516267527,0.894556020945,-0.491556708813,"(0.003, 0.0, 0.0, 0.0, 0.003, 0.0, 0.0, 0.0, 0.003)",,
2022/03/09/18:22:24.016473,8822,1646846536,8.15003071,1646846544.15003,0.0460925346087,0.0354838062915,-0.904492003164,0.422505140746,"(0.00872665, 0.0, 0.0, 0.0, 0.00872665, 0.0, 0.0, 0.0, 0.00872665)",0.510902881622,-0.00149702094495,0.716746270657,"(0.000872665, 0.0, 0.0, 0.0, 0.000872665, 0.0, 0.0, 0.0, 0.000872665)",-0.140679294281,1.10237856366,-0.448691355586,"(0.003, 0.0, 0.0, 0.0, 0.003, 0.0, 0.0, 0.0, 0.003)",,
2022/03/09/18:22:24.048359,8823,1646846536,8.47708999,1646846544.47709,0.0515181212041,0.0403771258386,-0.899320171073,0.432364199255,"(0.00872665, 0.0, 0.0, 0.0, 0.00872665, 0.0, 0.0, 0.0, 0.00872665)",0.485900044441,-0.0160203874111,0.717080295086,"(0.000872665, 0.0, 0.0, 0.0, 0.000872665, 0.0, 0.0, 0.0, 0.000872665)",-0.0786013060436,1.30153363243,-0.447953436971,"(0.003, 0.0, 0.0, 0.0, 0.003, 0.0, 0.0, 0.0, 0.003)",,
2022/03/09/18:22:24.080983,8824,1646846536,8.80607345,1646846544.80607,0.0562999199025,0.0454767986695,-0.894001629003,0.442180129746,"(0.00872665, 0.0, 0.0, 0.0, 0.00872665, 0.0, 0.0, 0.0, 0.00872665)",0.454497933388,-0.0260549020022,0.718326032162,"(0.000872665, 0.0, 0.0, 0.0, 0.000872665, 0.0, 0.0, 0.0, 0.000872665)",-0.0480645877495,1.50824249983,-0.38043856144,"(0.003, 0.0, 0.0, 0.0, 0.003, 0.0, 0.0, 0.0, 0.003)",,
2022/03/09/18:22:24.105708,8825,1646846536,8.105246474,1646846544.10525,0.0603058964562,0.0506929325113,-0.888481094363,0.452100398591,"(0.00872665, 0.0, 0.0, 0.0, 0.00872665, 0.0, 0.0, 0.0, 0.00872665)",0.416917026043,-0.0350633002818,0.729611873627,"(0.000872665, 0.0, 0.0, 0.0, 0.000872665, 0.0, 0.0, 0.0, 0.000872665)",0.0156950962543,1.68801953048,-0.365316492319,"(0.003, 0.0, 0.0, 0.0, 0.003, 0.0, 0.0, 0.0, 0.003)",,
2022/03/09/18:22:24.134997,8826,1646846536,8.134420259,1646846544.13442,0.0634506578946,0.0559459902928,-0.882749430153,0.462166099738,"(0.00872665, 0.0, 0.0, 0.0, 0.00872665, 0.0, 0.0, 0.0, 0.00872665)",0.368059307337,-0.0410245582461,0.737474322319,"(0.000872665, 0.0, 0.0, 0.0, 0.000872665, 0.0, 0.0, 0.0, 0.000872665)",0.0821045922115,1.84903226137,-0.320624468923,"(0.003, 0.0, 0.0, 0.0, 0.003, 0.0, 0.0, 0.0, 0.003)",,
2022/03/09/18:22:24.169276,8827,1646846536,8.168521028,1646846544.16852,0.0656944883342,0.0610854567922,-0.876868279434,0.472286800254,"(0.00872665, 0.0, 0.0, 0.0, 0.00872665, 0.0, 0.0, 0.0, 0.00872665)",0.319740951061,-0.0459092110395,0.744957506657,"(0.000872665, 0.0, 0.0, 0.0, 0.000872665, 0.0, 0.0, 0.0, 0.000872665)",0.144150018767,2.01239425734,-0.276289710402,"(0.003, 0.0, 0.0, 0.0, 0.003, 0.0, 0.0, 0.0, 0.003)",,
2022/03/09/18:22:24.198072,8828,1646846536,8.196580929,1646846544.19658,0.0669893575311,0.0659868143954,-0.87088778029,0.482402985527,"(0.00872665, 0.0, 0.0, 0.0, 0.00872665, 0.0, 0.0, 0.0, 0.00872665)",0.263534098864,-0.0426246672869,0.739563584328,"(0.000872665, 0.0, 0.0, 0.0, 0.000872665, 0.0, 0.0, 0.0, 0.000872665)",0.209357473366,2.12873513773,-0.240087844133,"(0.003, 0.0, 0.0, 0.0, 0.003, 0.0, 0.0, 0.0, 0.003)",,
2022/03/09/18:22:24.225610,8829,1646846536,8.224774364,1646846544.22477,0.0674064404297,0.0705220606509,-0.864905621718,0.492362951765,"(0.00872665, 0.0, 0.0, 0.0, 0.00872665, 0.0, 0.0, 0.0, 0.00872665)",0.202409550548,-0.0447035953403,0.730475783348,"(0.000872665, 0.0, 0.0, 0.0, 0.000872665, 0.0, 0.0, 0.0, 0.000872665)",0.271931634396,2.21803703114,-0.206631830335,"(0.003, 0.0, 0.0, 0.0, 0.003, 0.0, 0.0, 0.0, 0.003)",,
2022/03/09/18:22:24.256325,8830,1646846536,8.253298164,1646846544.2533,0.0669614898457,0.0745534054762,-0.859033966766,0.502014534204,"(0.00872665, 0.0, 0.0, 0.0, 0.00872665, 0.0, 0.0, 0.0, 0.00872665)",0.14685305953,-0.0386698246002,0.704490840435,"(0.000872665, 0.0, 0.0, 0.0, 0.000872665, 0.0, 0.0, 0.0, 0.000872665)",0.3224727007,2.27499373555,-0.178613142371,"(0.003, 0.0, 0.0, 0.0, 0.003, 0.0, 0.0, 0.0, 0.003)",,
2022/03/09/18:22:24.293045,8831,1646846536,8.291297115,1646846544.2913,0.0658103029103,0.0779565565907,-0.853413599926,0.511152625716,"(0.00872665, 0.0, 0.0, 0.0, 0.00872665, 0.0, 0.0, 0.0, 0.00872665)",0.0870457589626,-0.0319245345891,0.665265381336,"(0.000872665, 0.0, 0.0, 0.0, 0.000872665, 0.0, 0.0, 0.0, 0.000872665)",0.366133129075,2.28894489974,-0.159302127957,"(0.003, 0.0, 0.0, 0.0, 0.003, 0.0, 0.0, 0.0, 0.003)",,
2022/03/09/18:22:24.314106,8832,1646846536,8.313689752,1646846544.31369,0.0640713413876,0.0806403152463,-0.848216470632,0.519539047346,"(0.00872665, 0.0, 0.0, 0.0, 0.00872665, 0.0, 0.0, 0.0, 0.00872665)",0.0354189500213,-0.0249845683575,0.604791641235,"(0.000872665, 0.0, 0.0, 0.0, 0.000872665, 0.0, 0.0, 0.0, 0.000872665)",0.408546931073,2.28524522021,-0.144810388684,"(0.003, 0.0, 0.0, 0.0, 0.003, 0.0, 0.0, 0.0, 0.003)",,
2022/03/09/18:22:24.344565,8833,1646846536,8.342943441,1646846544.34294,0.0619283417795,0.0825259474618,-0.84361250859,0.526946186844,"(0.00872665, 0.0, 0.0, 0.0, 0.00872665, 0.0, 0.0, 0.0, 0.00872665)",-0.0195826198906,-0.0095938956365,0.527236163616,"(0.000872665, 0.0, 0.0, 0.0, 0.000872665, 0.0, 0.0, 0.0, 0.000872665)",0.431695911661,2.24825778052,-0.158571810722,"(0.003, 0.0, 0.0, 0.0, 0.003, 0.0, 0.0, 0.0, 0.003)",,
2022/03/09/18:22:24.374591,8834,1646846536,8.37259673,1646846544.3726,0.0595047024297,0.0835884138875,-0.839774457152,0.533151975114,"(0.00872665, 0.0, 0.0, 0.0, 0.00872665, 0.0, 0.0, 0.0, 0.00872665)",-0.0673561990261,-0.00491526257247,0.432940900326,"(0.000872665, 0.0, 0.0, 0.0, 0.000872665, 0.0, 0.0, 0.0, 0.000872665)",0.446279306039,2.19383803681,-0.149374725223,"(0.003, 0.0, 0.0, 0.0, 0.003, 0.0, 0.0, 0.0, 0.003)",,
2022/03/09/18:22:24.409700,8835,1646846536,8.408864744,1646846544.40886,0.0569351090778,0.0838131340188,-0.836858710737,0.53796026822,"(0.00872665, 0.0, 0.0, 0.0, 0.00872665, 0.0, 0.0, 0.0, 0.00872665)",-0.119051426649,0.00646301638335,0.324416786432,"(0.000872665, 0.0, 0.0, 0.0, 0.000872665, 0.0, 0.0, 0.0, 0.000872665)",0.443044260889,2.15206421256,-0.167594064474,"(0.003, 0.0, 0.0, 0.0, 0.003, 0.0, 0.0, 0.0, 0.003)",,
2022/03/09/18:22:24.434309,8836,1646846536,8.433008148,1646846544.43301,0.0543031925286,0.0831789075196,-0.835015650096,0.541185085457,"(0.00872665, 0.0, 0.0, 0.0, 0.00872665, 0.0, 0.0, 0.0, 0.00872665)",-0.163190588355,0.0155961383134,0.199203252792,"(0.000872665, 0.0, 0.0, 0.0, 0.000872665, 0.0, 0.0, 0.0, 0.000872665)",0.443188906386,2.08913940132,-0.157077262402,"(0.003, 0.0, 0.0, 0.0, 0.003, 0.0, 0.0, 0.0, 0.003)",,
2022/03/09/18:22:24.464465,8837,1646846536,8.462681179,1646846544.46268,0.0516512901395,0.0817247698146,-0.834280336978,0.542797868048,"(0.00872665, 0.0, 0.0, 0.0, 0.00872665, 0.0, 0.0, 0.0, 0.00872665)",-0.211703881621,0.026487249881,0.0819123014808,"(0.000872665, 0.0, 0.0, 0.0, 0.000872665, 0.0, 0.0, 0.0, 0.000872665)",0.444410974458,2.03239334285,-0.183982640505,"(0.003, 0.0, 0.0, 0.0, 0.003, 0.0, 0.0, 0.0, 0.003)",,
2022/03/09/18:22:24.494835,8838,1646846536,8.491809328,1646846544.49181,0.0489579794661,0.0794974575127,-0.834605290707,0.542878696598,"(0.00872665, 0.0, 0.0, 0.0, 0.00872665, 0.0, 0.0, 0.0, 0.00872665)",-0.254074424505,0.0343298763037,-0.0327420942485,"(0.000872665, 0.0, 0.0, 0.0, 0.000872665, 0.0, 0.0, 0.0, 0.000872665)",0.447842778414,1.94272205159,-0.199013493061,"(0.003, 0.0, 0.0, 0.0, 0.003, 0.0, 0.0, 0.0, 0.003)",,
2022/03/09/18:22:24.527435,8839,1646846536,8.527013973,1646846544.52701,0.0462014603497,0.0765727386631,-0.835913042326,0.541526939703,"(0.00872665, 0.0, 0.0, 0.0, 0.00872665, 0.0, 0.0, 0.0, 0.00872665)",-0.294116020203,0.0457870215178,-0.136986240745,"(0.000872665, 0.0, 0.0, 0.0, 0.000872665, 0.0, 0.0, 0.0, 0.000872665)",0.438937761337,1.85001912519,-0.210508534312,"(0.003, 0.0, 0.0, 0.0, 0.003, 0.0, 0.0, 0.0, 0.003)",,
2022/03/09/18:22:24.555179,8840,1646846536,8.551887524,1646846544.55189,0.0433204453437,0.0729938593055,-0.838081415819,0.538901452937,"(0.00872665, 0.0, 0.0, 0.0, 0.00872665, 0.0, 0.0, 0.0, 0.00872665)",-0.339567571878,0.0532218515873,-0.226420462132,"(0.000872665, 0.0, 0.0, 0.0, 0.000872665, 0.0, 0.0, 0.0, 0.000872665)",0.439839767441,1.72540472701,-0.259761385918,"(0.003, 0.0, 0.0, 0.0, 0.003, 0.0, 0.0, 0.0, 0.003)",,
2022/03/09/18:22:24.581881,8841,1646846536,8.58144136,1646846544.58144,0.0402204209821,0.068885544584,-0.840970354033,0.535169097688,"(0.00872665, 0.0, 0.0, 0.0, 0.00872665, 0.0, 0.0, 0.0, 0.00872665)",-0.375861227512,0.0611468851566,-0.306270092726,"(0.000872665, 0.0, 0.0, 0.0, 0.000872665, 0.0, 0.0, 0.0, 0.000872665)",0.416703212187,1.60158306509,-0.263002497554,"(0.003, 0.0, 0.0, 0.0, 0.003, 0.0, 0.0, 0.0, 0.003)",,
2022/03/09/18:22:24.614679,8842,1646846536,8.61169377,1646846544.61169,0.0368731145463,0.0643155523828,-0.844467722407,0.530450892127,"(0.00872665, 0.0, 0.0, 0.0, 0.00872665, 0.0, 0.0, 0.0, 0.00872665)",-0.414106935263,0.0674755871296,-0.379057258368,"(0.000872665, 0.0, 0.0, 0.0, 0.000872665, 0.0, 0.0, 0.0, 0.000872665)",0.394601029381,1.46515626803,-0.310362605453,"(0.003, 0.0, 0.0, 0.0, 0.003, 0.0, 0.0, 0.0, 0.003)",,
2022/03/09/18:22:24.649628,8843,1646846536,8.648049728,1646846544.64805,0.0332098855406,0.0593862596516,-0.848470702557,0.524850304915,"(0.00872665, 0.0, 0.0, 0.0, 0.00872665, 0.0, 0.0, 0.0, 0.00872665)",-0.441663295031,0.0727806463838,-0.43765053153,"(0.000872665, 0.0, 0.0, 0.0, 0.000872665, 0.0, 0.0, 0.0, 0.000872665)",0.350985843837,1.29969658345,-0.333029336929,"(0.003, 0.0, 0.0, 0.0, 0.003, 0.0, 0.0, 0.0, 0.003)",,
2022/03/09/18:22:24.672548,8844,1646846536,8.670914778,1646846544.67091,0.0292288603577,0.0542044638943,-0.852870274486,0.518478393681,"(0.00872665, 0.0, 0.0, 0.0, 0.00872665, 0.0, 0.0, 0.0, 0.00872665)",-0.47317636013,0.0750190764666,-0.493990272284,"(0.000872665, 0.0, 0.0, 0.0, 0.000872665, 0.0, 0.0, 0.0, 0.000872665)",0.314950550124,1.14018527135,-0.36989310801,"(0.003, 0.0, 0.0, 0.0, 0.003, 0.0, 0.0, 0.0, 0.003)",,
2022/03/09/18:22:24.702241,8845,1646846536,8.700891276,1646846544.70089,0.0248711793184,0.0488615094211,-0.857599673504,0.511387111045,"(0.00872665, 0.0, 0.0, 0.0, 0.00872665, 0.0, 0.0, 0.0, 0.00872665)",-0.499375879765,0.076639175415,-0.545449912548,"(0.000872665, 0.0, 0.0, 0.0, 0.000872665, 0.0, 0.0, 0.0, 0.000872665)",0.266192446053,0.952740786821,-0.400717290044,"(0.003, 0.0, 0.0, 0.0, 0.003, 0.0, 0.0, 0.0, 0.003)",,
