time,.header.seq,.header.stamp.secs,.header.stamp.nsecs,.header.frame_id,.orientation.x,.orientation.y,.orientation.z,.orientation.w,.orientation_covariance,.angular_velocity.x,.angular_velocity.y,.angular_velocity.z,.angular_velocity_covariance,.linear_acceleration.x,.linear_acceleration.y,.linear_acceleration.z,.linear_acceleration_covariance
2022/01/11/19:05:31.876945,13196,1641924331,876524368,imu_iphone,-0.0106648854017,0.0817270636267,-0.48849560089,0.868665065029,"(0.00872665, 0.0, 0.0, 0.0, 0.00872665, 0.0, 0.0, 0.0, 0.00872665)",0.178494140506,-0.138211548328,-1.09526085854,"(0.000872665, 0.0, 0.0, 0.0, 0.000872665, 0.0, 0.0, 0.0, 0.000872665)",-0.0643505086005,4.01635770679,-0.778587754369,"(0.003, 0.0, 0.0, 0.0, 0.003, 0.0, 0.0, 0.0, 0.003)"
2022/01/11/19:05:31.906967,13197,1641924331,906261331,imu_iphone,-0.00724863777319,0.0848416450785,-0.50056934452,0.861498510641,"(0.00872665, 0.0, 0.0, 0.0, 0.00872665, 0.0, 0.0, 0.0, 0.00872665)",0.130596503615,-0.0604962222278,-0.822743058205,"(0.000872665, 0.0, 0.0, 0.0, 0.000872665, 0.0, 0.0, 0.0, 0.000872665)",0.127088062763,4.04138408214,-0.415589098334,"(0.003, 0.0, 0.0, 0.0, 0.003, 0.0, 0.0, 0.0, 0.003)"
2022/01/11/19:05:31.936670,13198,1641924331,936046749,imu_iphone,-0.00397154070842,0.0866225697512,-0.509165276239,0.856289366246,"(0.00872665, 0.0, 0.0, 0.0, 0.00872665, 0.0, 0.0, 0.0, 0.00872665)",0.109567955136,0.024928227067,-0.576728343964,"(0.000872665, 0.0, 0.0, 0.0, 0.000872665, 0.0, 0.0, 0.0, 0.000872665)",0.0355815497786,4.17258536875,-0.0894477814436,"(0.003, 0.0, 0.0, 0.0, 0.003, 0.0, 0.0, 0.0, 0.003)"
2022/01/11/19:05:31.966496,13199,1641924331,966152059,imu_iphone,-0.000553906607387,0.0877399844665,-0.51506998818,0.852645468873,"(0.00872665, 0.0, 0.0, 0.0, 0.00872665, 0.0, 0.0, 0.0, 0.00872665)",0.129061147571,0.0861519128084,-0.365196287632,"(0.000872665, 0.0, 0.0, 0.0, 0.000872665, 0.0, 0.0, 0.0, 0.000872665)",0.411544871628,4.45372505218,0.0422016942501,"(0.003, 0.0, 0.0, 0.0, 0.003, 0.0, 0.0, 0.0, 0.003)"
2022/01/11/19:05:31.996107,13200,1641924331,995716108,imu_iphone,0.0030306338373,0.0878191368924,-0.518103285207,0.850792336773,"(0.00872665, 0.0, 0.0, 0.0, 0.00872665, 0.0, 0.0, 0.0, 0.00872665)",0.0629983469844,0.205267772079,-0.0969958081841,"(0.000872665, 0.0, 0.0, 0.0, 0.000872665, 0.0, 0.0, 0.0, 0.000872665)",0.917551731393,5.57155802608,0.241739097834,"(0.003, 0.0, 0.0, 0.0, 0.003, 0.0, 0.0, 0.0, 0.003)"
2022/01/11/19:05:32.025959,13201,1641924332,25554967,imu_iphone,0.00594479356197,0.0867609382685,-0.517340159272,0.851349727565,"(0.00872665, 0.0, 0.0, 0.0, 0.00872665, 0.0, 0.0, 0.0, 0.00872665)",0.0244432352483,0.230561062694,0.240565478802,"(0.000872665, 0.0, 0.0, 0.0, 0.000872665, 0.0, 0.0, 0.0, 0.000872665)",-0.0995751589537,6.83188267529,0.167012266517,"(0.003, 0.0, 0.0, 0.0, 0.003, 0.0, 0.0, 0.0, 0.003)"
2022/01/11/19:05:32.056867,13202,1641924332,55288855,imu_iphone,0.00723617500183,0.0848106019045,-0.51259613819,0.854400373764,"(0.00872665, 0.0, 0.0, 0.0, 0.00872665, 0.0, 0.0, 0.0, 0.00872665)",-0.0696377381682,0.221845209599,0.56720238924,"(0.000872665, 0.0, 0.0, 0.0, 0.000872665, 0.0, 0.0, 0.0, 0.000872665)",-0.688447881863,7.79128914177,0.277277305126,"(0.003, 0.0, 0.0, 0.0, 0.003, 0.0, 0.0, 0.0, 0.003)"
2022/01/11/19:05:32.086372,13203,1641924332,85366900,imu_iphone,0.00576230611969,0.0821740549781,-0.502340501661,0.86073703354,"(0.00872665, 0.0, 0.0, 0.0, 0.00872665, 0.0, 0.0, 0.0, 0.00872665)",-0.154511451721,0.156515479088,1.10519087315,"(0.000872665, 0.0, 0.0, 0.0, 0.000872665, 0.0, 0.0, 0.0, 0.000872665)",-1.3638931641,7.29779817402,-0.00320719778538,"(0.003, 0.0, 0.0, 0.0, 0.003, 0.0, 0.0, 0.0, 0.003)"
2022/01/11/19:05:32.115031,13204,1641924332,114722367,imu_iphone,0.00103609122908,0.0789304270098,-0.485032228343,0.870926318167,"(0.00872665, 0.0, 0.0, 0.0, 0.00872665, 0.0, 0.0, 0.0, 0.00872665)",-0.247431874275,0.0953592509031,1.59717166424,"(0.000872665, 0.0, 0.0, 0.0, 0.000872665, 0.0, 0.0, 0.0, 0.000872665)",-0.286555447653,7.17459441662,-0.219251875877,"(0.003, 0.0, 0.0, 0.0, 0.003, 0.0, 0.0, 0.0, 0.003)"
2022/01/11/19:05:32.145423,13205,1641924332,145082711,imu_iphone,-0.00623882266565,0.074202625776,-0.462568921817,0.883450643776,"(0.00872665, 0.0, 0.0, 0.0, 0.00872665, 0.0, 0.0, 0.0, 0.00872665)",-0.383183628321,0.036398075521,1.87679576874,"(0.000872665, 0.0, 0.0, 0.0, 0.000872665, 0.0, 0.0, 0.0, 0.000872665)",-0.438689839393,7.58429069102,-0.224949987531,"(0.003, 0.0, 0.0, 0.0, 0.003, 0.0, 0.0, 0.0, 0.003)"
2022/01/11/19:05:32.182593,13206,1641924332,182176420,imu_iphone,-0.0153579498324,0.0672348134027,-0.437606175425,0.896517957697,"(0.00872665, 0.0, 0.0, 0.0, 0.00872665, 0.0, 0.0, 0.0, 0.00872665)",-0.542445540428,-0.0353878438473,1.95967423916,"(0.000872665, 0.0, 0.0, 0.0, 0.000872665, 0.0, 0.0, 0.0, 0.000872665)",-1.35556088179,7.5111934787,-0.839817457795,"(0.003, 0.0, 0.0, 0.0, 0.003, 0.0, 0.0, 0.0, 0.003)"
2022/01/11/19:05:32.207263,13207,1641924332,206743672,imu_iphone,-0.0255133932617,0.057441524542,-0.412961667936,0.908577018661,"(0.00872665, 0.0, 0.0, 0.0, 0.00872665, 0.0, 0.0, 0.0, 0.00872665)",-0.718158662319,-0.0849677249789,1.9194637537,"(0.000872665, 0.0, 0.0, 0.0, 0.000872665, 0.0, 0.0, 0.0, 0.000872665)",-0.919905966595,6.80480012655,-0.948696121573,"(0.003, 0.0, 0.0, 0.0, 0.003, 0.0, 0.0, 0.0, 0.003)"
2022/01/11/19:05:32.234653,13208,1641924332,233969009,imu_iphone,-0.0360920012368,0.0443537972975,-0.387231700171,0.920207432319,"(0.00872665, 0.0, 0.0, 0.0, 0.00872665, 0.0, 0.0, 0.0, 0.00872665)",-0.892509400845,-0.102067895234,2.17137360573,"(0.000872665, 0.0, 0.0, 0.0, 0.000872665, 0.0, 0.0, 0.0, 0.000872665)",-0.85272204347,5.83049612403,-1.51957849681,"(0.003, 0.0, 0.0, 0.0, 0.003, 0.0, 0.0, 0.0, 0.003)"
2022/01/11/19:05:32.269037,13209,1641924332,268485063,imu_iphone,-0.0465969826048,0.0272345290138,-0.356428519515,0.932762409254,"(0.00872665, 0.0, 0.0, 0.0, 0.00872665, 0.0, 0.0, 0.0, 0.00872665)",-1.02868843079,-0.0960221290588,2.66400122643,"(0.000872665, 0.0, 0.0, 0.0, 0.000872665, 0.0, 0.0, 0.0, 0.000872665)",-1.22097544603,4.68058035493,-1.72348727882,"(0.003, 0.0, 0.0, 0.0, 0.003, 0.0, 0.0, 0.0, 0.003)"
2022/01/11/19:05:32.293880,13210,1641924332,293514382,imu_iphone,-0.0550382726281,0.00594950323905,-0.320005433407,0.945796973217,"(0.00872665, 0.0, 0.0, 0.0, 0.00872665, 0.0, 0.0, 0.0, 0.00872665)",-1.15293061733,-0.0205732807517,2.90806937218,"(0.000872665, 0.0, 0.0, 0.0, 0.000872665, 0.0, 0.0, 0.0, 0.000872665)",-0.922756264955,3.50376885563,-2.0876612252,"(0.003, 0.0, 0.0, 0.0, 0.003, 0.0, 0.0, 0.0, 0.003)"
2022/01/11/19:05:32.323697,13211,1641924332,323200582,imu_iphone,-0.0590957456775,-0.0183136106896,-0.28199847599,0.957417967267,"(0.00872665, 0.0, 0.0, 0.0, 0.00872665, 0.0, 0.0, 0.0, 0.00872665)",-1.22304666042,0.0949687361717,2.81942605972,"(0.000872665, 0.0, 0.0, 0.0, 0.000872665, 0.0, 0.0, 0.0, 0.000872665)",-1.22848743707,2.07790529206,-2.19274563074,"(0.003, 0.0, 0.0, 0.0, 0.003, 0.0, 0.0, 0.0, 0.003)"
2022/01/11/19:05:32.353381,13212,1641924332,353015593,imu_iphone,-0.0579921403178,-0.0434758438448,-0.245378262368,0.966714162005,"(0.00872665, 0.0, 0.0, 0.0, 0.00872665, 0.0, 0.0, 0.0, 0.00872665)",-1.22153735161,0.225083574653,2.60929632187,"(0.000872665, 0.0, 0.0, 0.0, 0.000872665, 0.0, 0.0, 0.0, 0.000872665)",-1.20232187793,0.405664911568,-2.14227772772,"(0.003, 0.0, 0.0, 0.0, 0.003, 0.0, 0.0, 0.0, 0.003)"
2022/01/11/19:05:32.383001,13213,1641924332,382653202,imu_iphone,-0.051801891499,-0.0677207027277,-0.210604454092,0.973846104051,"(0.00872665, 0.0, 0.0, 0.0, 0.00872665, 0.0, 0.0, 0.0, 0.00872665)",-1.15340852737,0.348465591669,2.39887046814,"(0.000872665, 0.0, 0.0, 0.0, 0.000872665, 0.0, 0.0, 0.0, 0.000872665)",-1.82069226891,-1.48567502484,-2.06552892923,"(0.003, 0.0, 0.0, 0.0, 0.003, 0.0, 0.0, 0.0, 0.003)"
2022/01/11/19:05:32.413123,13214,1641924332,412784469,imu_iphone,-0.0410431022991,-0.0893837156031,-0.176617082515,0.97935306264,"(0.00872665, 0.0, 0.0, 0.0, 0.00872665, 0.0, 0.0, 0.0, 0.00872665)",-1.00513410568,0.447504997253,2.25297188759,"(0.000872665, 0.0, 0.0, 0.0, 0.000872665, 0.0, 0.0, 0.0, 0.000872665)",-1.47543187246,-2.91398097038,-1.77021705687,"(0.003, 0.0, 0.0, 0.0, 0.003, 0.0, 0.0, 0.0, 0.003)"
2022/01/11/19:05:32.442966,13215,1641924332,442598192,imu_iphone,-0.026206106592,-0.107395463832,-0.142583939459,0.983589993104,"(0.00872665, 0.0, 0.0, 0.0, 0.00872665, 0.0, 0.0, 0.0, 0.00872665)",-0.833915472031,0.530606210232,2.20369315147,"(0.000872665, 0.0, 0.0, 0.0, 0.000872665, 0.0, 0.0, 0.0, 0.000872665)",-1.85128577828,-4.00287110388,-1.61360991061,"(0.003, 0.0, 0.0, 0.0, 0.003, 0.0, 0.0, 0.0, 0.003)"
2022/01/11/19:05:32.477957,13216,1641924332,477524119,imu_iphone,-0.00826058574953,-0.121067399044,-0.108016935062,0.98671515107,"(0.00872665, 0.0, 0.0, 0.0, 0.00872665, 0.0, 0.0, 0.0, 0.00872665)",-0.661713719368,0.566337347031,2.08061981201,"(0.000872665, 0.0, 0.0, 0.0, 0.000872665, 0.0, 0.0, 0.0, 0.000872665)",-2.57610195279,-4.07986899376,-1.42684867322,"(0.003, 0.0, 0.0, 0.0, 0.003, 0.0, 0.0, 0.0, 0.003)"
2022/01/11/19:05:32.502392,13217,1641924332,501994512,imu_iphone,0.0103323739943,-0.130473277344,-0.0765879958094,0.988435250709,"(0.00872665, 0.0, 0.0, 0.0, 0.00872665, 0.0, 0.0, 0.0, 0.00872665)",-0.527653753757,0.563515067101,1.74014222622,"(0.000872665, 0.0, 0.0, 0.0, 0.000872665, 0.0, 0.0, 0.0, 0.000872665)",-3.15040670335,-3.83994925708,-1.3306227994,"(0.003, 0.0, 0.0, 0.0, 0.003, 0.0, 0.0, 0.0, 0.003)"
2022/01/11/19:05:32.532339,13218,1641924332,532009130,imu_iphone,0.0279266833354,-0.136571412736,-0.0494735990359,0.988999854691,"(0.00872665, 0.0, 0.0, 0.0, 0.00872665, 0.0, 0.0, 0.0, 0.00872665)",-0.42572259903,0.530949831009,1.49483585358,"(0.000872665, 0.0, 0.0, 0.0, 0.000872665, 0.0, 0.0, 0.0, 0.000872665)",-3.51091239899,-3.97014657676,-1.16576757073,"(0.003, 0.0, 0.0, 0.0, 0.003, 0.0, 0.0, 0.0, 0.003)"
2022/01/11/19:05:32.562126,13219,1641924332,561671354,imu_iphone,0.0438362867133,-0.140336225497,-0.0261446862054,0.988787428704,"(0.00872665, 0.0, 0.0, 0.0, 0.00872665, 0.0, 0.0, 0.0, 0.00872665)",-0.361194431782,0.468910604715,1.21920621395,"(0.000872665, 0.0, 0.0, 0.0, 0.000872665, 0.0, 0.0, 0.0, 0.000872665)",-3.85735817224,-3.80938089073,-0.814192035198,"(0.003, 0.0, 0.0, 0.0, 0.003, 0.0, 0.0, 0.0, 0.003)"
2022/01/11/19:05:32.591738,13220,1641924332,591433584,imu_iphone,0.0572157146936,-0.142774004689,-0.00754041445183,0.988071398092,"(0.00872665, 0.0, 0.0, 0.0, 0.00872665, 0.0, 0.0, 0.0, 0.00872665)",-0.296948254108,0.39542979002,0.938689470291,"(0.000872665, 0.0, 0.0, 0.0, 0.000872665, 0.0, 0.0, 0.0, 0.000872665)",-3.81527108341,-4.63599416614,-0.520453648567,"(0.003, 0.0, 0.0, 0.0, 0.003, 0.0, 0.0, 0.0, 0.003)"
2022/01/11/19:05:32.621602,13221,1641924332,621280874,imu_iphone,0.0682155703638,-0.144185685405,0.00745357759602,0.987168459922,"(0.00872665, 0.0, 0.0, 0.0, 0.00872665, 0.0, 0.0, 0.0, 0.00872665)",-0.235174104571,0.310785293579,0.811355173588,"(0.000872665, 0.0, 0.0, 0.0, 0.000872665, 0.0, 0.0, 0.0, 0.000872665)",-4.00320965767,-5.26378164411,-0.419255302548,"(0.003, 0.0, 0.0, 0.0, 0.003, 0.0, 0.0, 0.0, 0.003)"
2022/01/11/19:05:32.651251,13222,1641924332,650950787,imu_iphone,0.0775378547227,-0.14426213147,0.0212932578889,0.986267162425,"(0.00872665, 0.0, 0.0, 0.0, 0.00872665, 0.0, 0.0, 0.0, 0.00872665)",-0.163340643048,0.218202963471,0.769455134869,"(0.000872665, 0.0, 0.0, 0.0, 0.000872665, 0.0, 0.0, 0.0, 0.000872665)",-3.83081093609,-5.09592211604,-0.210736575723,"(0.003, 0.0, 0.0, 0.0, 0.003, 0.0, 0.0, 0.0, 0.003)"
2022/01/11/19:05:32.681161,13223,1641924332,680909844,imu_iphone,0.0846920742748,-0.143600962953,0.0326158838631,0.985465483979,"(0.00872665, 0.0, 0.0, 0.0, 0.00872665, 0.0, 0.0, 0.0, 0.00872665)",-0.0956844910979,0.135291472077,0.541191637516,"(0.000872665, 0.0, 0.0, 0.0, 0.000872665, 0.0, 0.0, 0.0, 0.000872665)",-3.72178843081,-5.57149721503,-0.165856856704,"(0.003, 0.0, 0.0, 0.0, 0.003, 0.0, 0.0, 0.0, 0.003)"
2022/01/11/19:05:32.710792,13224,1641924332,710471039,imu_iphone,0.0883700523899,-0.142846323964,0.0383917582512,0.985044026665,"(0.00872665, 0.0, 0.0, 0.0, 0.00872665, 0.0, 0.0, 0.0, 0.00872665)",0.0134089607745,0.046553414315,0.105108574033,"(0.000872665, 0.0, 0.0, 0.0, 0.000872665, 0.0, 0.0, 0.0, 0.000872665)",-4.04949797094,-6.78042191505,-0.0485155177116,"(0.003, 0.0, 0.0, 0.0, 0.003, 0.0, 0.0, 0.0, 0.003)"
2022/01/11/19:05:32.741156,13225,1641924332,740563816,imu_iphone,0.0868809349902,-0.142428912956,0.0348654125924,0.98536800785,"(0.00872665, 0.0, 0.0, 0.0, 0.00872665, 0.0, 0.0, 0.0, 0.00872665)",0.166048198938,-0.0505201742053,-0.500560462475,"(0.000872665, 0.0, 0.0, 0.0, 0.000872665, 0.0, 0.0, 0.0, 0.000872665)",-3.95165563434,-7.30395938516,-0.169192108512,"(0.003, 0.0, 0.0, 0.0, 0.003, 0.0, 0.0, 0.0, 0.003)"
2022/01/11/19:05:32.770494,13226,1641924332,770181883,imu_iphone,0.0806686229069,-0.141492132817,0.0228534528639,0.986382415355,"(0.00872665, 0.0, 0.0, 0.0, 0.00872665, 0.0, 0.0, 0.0, 0.00872665)",0.347081333399,-0.134758681059,-0.850739896297,"(0.000872665, 0.0, 0.0, 0.0, 0.000872665, 0.0, 0.0, 0.0, 0.000872665)",-3.6197103712,-7.73213344574,-0.32751950562,"(0.003, 0.0, 0.0, 0.0, 0.003, 0.0, 0.0, 0.0, 0.003)"
2022/01/11/19:05:32.800070,13227,1641924332,799882759,imu_iphone,0.0714998558611,-0.138478360254,0.00596107846306,0.987763119324,"(0.00872665, 0.0, 0.0, 0.0, 0.00872665, 0.0, 0.0, 0.0, 0.00872665)",0.539360642433,-0.219686895609,-1.08584475517,"(0.000872665, 0.0, 0.0, 0.0, 0.000872665, 0.0, 0.0, 0.0, 0.000872665)",-3.4267870456,-7.23017337084,-0.528631564379,"(0.003, 0.0, 0.0, 0.0, 0.003, 0.0, 0.0, 0.0, 0.003)"
2022/01/11/19:05:32.830329,13228,1641924332,829981455,imu_iphone,0.0597465899496,-0.133158309316,-0.0161273585425,0.989160815012,"(0.00872665, 0.0, 0.0, 0.0, 0.00872665, 0.0, 0.0, 0.0, 0.00872665)",0.71545279026,-0.273846566677,-1.45813536644,"(0.000872665, 0.0, 0.0, 0.0, 0.000872665, 0.0, 0.0, 0.0, 0.000872665)",-2.98310178369,-6.82129278302,-0.839444990158,"(0.003, 0.0, 0.0, 0.0, 0.003, 0.0, 0.0, 0.0, 0.003)"
2022/01/11/19:05:32.859868,13229,1641924332,859580216,imu_iphone,0.0455985001652,-0.125375910845,-0.0449823547571,0.990039517152,"(0.00872665, 0.0, 0.0, 0.0, 0.00872665, 0.0, 0.0, 0.0, 0.00872665)",0.884850084782,-0.302584171295,-1.89634537697,"(0.000872665, 0.0, 0.0, 0.0, 0.000872665, 0.0, 0.0, 0.0, 0.000872665)",-2.76181156844,-6.07058747649,-1.16500684798,"(0.003, 0.0, 0.0, 0.0, 0.003, 0.0, 0.0, 0.0, 0.003)"
2022/01/11/19:05:32.889584,13230,1641924332,889235273,imu_iphone,0.0302742414592,-0.11464612706,-0.0796658578088,0.989743950198,"(0.00872665, 0.0, 0.0, 0.0, 0.00872665, 0.0, 0.0, 0.0, 0.00872665)",1.02182996273,-0.319775611162,-2.21947979927,"(0.000872665, 0.0, 0.0, 0.0, 0.000872665, 0.0, 0.0, 0.0, 0.000872665)",-2.97918590337,-5.11196804523,-1.59506897449,"(0.003, 0.0, 0.0, 0.0, 0.003, 0.0, 0.0, 0.0, 0.003)"
2022/01/11/19:05:32.927781,13231,1641924332,927353895,imu_iphone,0.0155246595472,-0.100699228183,-0.117634784282,0.987816130622,"(0.00872665, 0.0, 0.0, 0.0, 0.00872665, 0.0, 0.0, 0.0, 0.00872665)",1.12884497643,-0.320434749126,-2.34481406212,"(0.000872665, 0.0, 0.0, 0.0, 0.000872665, 0.0, 0.0, 0.0, 0.000872665)",-2.66291790247,-3.81925771505,-1.84786281824,"(0.003, 0.0, 0.0, 0.0, 0.003, 0.0, 0.0, 0.0, 0.003)"
2022/01/11/19:05:32.949337,13232,1641924332,948968415,imu_iphone,0.00345672491291,-0.0840141286976,-0.154590167908,0.98439400507,"(0.00872665, 0.0, 0.0, 0.0, 0.00872665, 0.0, 0.0, 0.0, 0.00872665)",1.18618118763,-0.303014099598,-2.28983521461,"(0.000872665, 0.0, 0.0, 0.0, 0.000872665, 0.0, 0.0, 0.0, 0.000872665)",-2.61720904827,-2.59889644593,-2.04111388028,"(0.003, 0.0, 0.0, 0.0, 0.003, 0.0, 0.0, 0.0, 0.003)"
2022/01/11/19:05:32.981109,13233,1641924332,978979660,imu_iphone,-0.00572540827331,-0.0655923157772,-0.190782681468,0.979421684599,"(0.00872665, 0.0, 0.0, 0.0, 0.00872665, 0.0, 0.0, 0.0, 0.00872665)",1.19676995277,-0.283718168736,-2.45063400269,"(0.000872665, 0.0, 0.0, 0.0, 0.000872665, 0.0, 0.0, 0.0, 0.000872665)",-2.84441869229,-0.953602227867,-2.10405681789,"(0.003, 0.0, 0.0, 0.0, 0.003, 0.0, 0.0, 0.0, 0.003)"
2022/01/11/19:05:33.008951,13234,1641924333,8626930,imu_iphone,-0.0122735196362,-0.0465881423075,-0.228438004191,0.972365663705,"(0.00872665, 0.0, 0.0, 0.0, 0.00872665, 0.0, 0.0, 0.0, 0.00872665)",1.15047800541,-0.249780938029,-2.5397336483,"(0.000872665, 0.0, 0.0, 0.0, 0.000872665, 0.0, 0.0, 0.0, 0.000872665)",-2.91783399314,0.547838790715,-2.07232514799,"(0.003, 0.0, 0.0, 0.0, 0.003, 0.0, 0.0, 0.0, 0.003)"
2022/01/11/19:05:33.038697,13235,1641924333,38373281,imu_iphone,-0.015755352977,-0.027929780687,-0.264815618925,0.963765730962,"(0.00872665, 0.0, 0.0, 0.0, 0.00872665, 0.0, 0.0, 0.0, 0.00872665)",1.08741247654,-0.224241390824,-2.45531010628,"(0.000872665, 0.0, 0.0, 0.0, 0.000872665, 0.0, 0.0, 0.0, 0.000872665)",-2.69592134178,1.48251211971,-2.14620413303,"(0.003, 0.0, 0.0, 0.0, 0.003, 0.0, 0.0, 0.0, 0.003)"
2022/01/11/19:05:33.068478,13236,1641924333,68190417,imu_iphone,-0.0162469821032,-0.0104080291715,-0.298287090743,0.954281153538,"(0.00872665, 0.0, 0.0, 0.0, 0.00872665, 0.0, 0.0, 0.0, 0.00872665)",1.00659072399,-0.17772975564,-2.20898914337,"(0.000872665, 0.0, 0.0, 0.0, 0.000872665, 0.0, 0.0, 0.0, 0.000872665)",-2.09246295869,2.21703335658,-1.91628459692,"(0.003, 0.0, 0.0, 0.0, 0.003, 0.0, 0.0, 0.0, 0.003)"
2022/01/11/19:05:33.098781,13237,1641924333,98387541,imu_iphone,-0.0143238714868,0.00528400669545,-0.325576775563,0.945392336119,"(0.00872665, 0.0, 0.0, 0.0, 0.00872665, 0.0, 0.0, 0.0, 0.00872665)",0.917488992214,-0.153507992625,-1.75869119167,"(0.000872665, 0.0, 0.0, 0.0, 0.000872665, 0.0, 0.0, 0.0, 0.000872665)",-2.96946169138,2.35587695405,-1.77853413641,"(0.003, 0.0, 0.0, 0.0, 0.003, 0.0, 0.0, 0.0, 0.003)"
2022/01/11/19:05:33.146700,13238,1641924333,146236638,imu_iphone,-0.0112699808876,0.0194629189964,-0.348553367563,0.937019067189,"(0.00872665, 0.0, 0.0, 0.0, 0.00872665, 0.0, 0.0, 0.0, 0.00872665)",0.844137609005,-0.175661027431,-1.70750153065,"(0.000872665, 0.0, 0.0, 0.0, 0.000872665, 0.0, 0.0, 0.0, 0.000872665)",-3.6848398751,3.86054695129,-1.823253057,"(0.003, 0.0, 0.0, 0.0, 0.003, 0.0, 0.0, 0.0, 0.003)"
2022/01/11/19:05:33.157645,13239,1641924333,156997390,imu_iphone,-0.00746486561773,0.0321996175327,-0.372028406413,0.927632645628,"(0.00872665, 0.0, 0.0, 0.0, 0.00872665, 0.0, 0.0, 0.0, 0.00872665)",0.750177204609,-0.179514974356,-1.74283957481,"(0.000872665, 0.0, 0.0, 0.0, 0.000872665, 0.0, 0.0, 0.0, 0.000872665)",-3.23031855315,4.50204351872,-1.33794760644,"(0.003, 0.0, 0.0, 0.0, 0.003, 0.0, 0.0, 0.0, 0.003)"
2022/01/11/19:05:33.186805,13240,1641924333,186526909,imu_iphone,-0.00282530612886,0.0434994520433,-0.394766498193,0.917746820873,"(0.00872665, 0.0, 0.0, 0.0, 0.00872665, 0.0, 0.0, 0.0, 0.00872665)",0.703407645226,-0.154984951019,-1.66970586777,"(0.000872665, 0.0, 0.0, 0.0, 0.000872665, 0.0, 0.0, 0.0, 0.000872665)",-2.07219475508,3.94540525317,-1.28867896736,"(0.003, 0.0, 0.0, 0.0, 0.003, 0.0, 0.0, 0.0, 0.003)"
2022/01/11/19:05:33.216770,13241,1641924333,215959939,imu_iphone,0.00323653542514,0.0536225082814,-0.41633732187,0.907621829763,"(0.00872665, 0.0, 0.0, 0.0, 0.00872665, 0.0, 0.0, 0.0, 0.00872665)",0.689153730869,-0.0839027017355,-1.56377112865,"(0.000872665, 0.0, 0.0, 0.0, 0.000872665, 0.0, 0.0, 0.0, 0.000872665)",-0.710399279594,3.08355080903,-0.918228619695,"(0.003, 0.0, 0.0, 0.0, 0.003, 0.0, 0.0, 0.0, 0.003)"
2022/01/11/19:05:33.247216,13242,1641924333,246897435,imu_iphone,0.0107520578101,0.0628584785298,-0.435260309744,0.898043243776,"(0.00872665, 0.0, 0.0, 0.0, 0.00872665, 0.0, 0.0, 0.0, 0.00872665)",0.70536416769,-0.0181966591626,-1.34800183773,"(0.000872665, 0.0, 0.0, 0.0, 0.000872665, 0.0, 0.0, 0.0, 0.000872665)",-0.956287196204,2.90296949387,-0.813564628959,"(0.003, 0.0, 0.0, 0.0, 0.003, 0.0, 0.0, 0.0, 0.003)"
2022/01/11/19:05:33.277854,13243,1641924333,276757117,imu_iphone,0.0191982191092,0.0715089834958,-0.451570317037,0.889158108793,"(0.00872665, 0.0, 0.0, 0.0, 0.00872665, 0.0, 0.0, 0.0, 0.00872665)",0.719778001308,0.0106857893988,-1.16406095028,"(0.000872665, 0.0, 0.0, 0.0, 0.000872665, 0.0, 0.0, 0.0, 0.000872665)",-1.38012181878,3.11086549222,-0.685956164002,"(0.003, 0.0, 0.0, 0.0, 0.003, 0.0, 0.0, 0.0, 0.003)"
2022/01/11/19:05:33.307151,13244,1641924333,306750488,imu_iphone,0.028159962798,0.0799192513876,-0.465198609938,0.881141409233,"(0.00872665, 0.0, 0.0, 0.0, 0.00872665, 0.0, 0.0, 0.0, 0.00872665)",0.754170894623,0.0386837720871,-0.985169351101,"(0.000872665, 0.0, 0.0, 0.0, 0.000872665, 0.0, 0.0, 0.0, 0.000872665)",-0.778567362204,2.47347864032,-0.556558451056,"(0.003, 0.0, 0.0, 0.0, 0.003, 0.0, 0.0, 0.0, 0.003)"
2022/01/11/19:05:33.337623,13245,1641924333,336603799,imu_iphone,0.0375588102172,0.0881343205568,-0.476950349317,0.873693333843,"(0.00872665, 0.0, 0.0, 0.0, 0.00872665, 0.0, 0.0, 0.0, 0.00872665)",0.751824855804,0.049500785768,-0.86441719532,"(0.000872665, 0.0, 0.0, 0.0, 0.000872665, 0.0, 0.0, 0.0, 0.000872665)",-1.13560032338,3.69549057841,-0.763714776635,"(0.003, 0.0, 0.0, 0.0, 0.003, 0.0, 0.0, 0.0, 0.003)"
2022/01/11/19:05:33.366504,13246,1641924333,366012343,imu_iphone,0.0463967316449,0.096076100046,-0.486136302316,0.867345503166,"(0.00872665, 0.0, 0.0, 0.0, 0.00872665, 0.0, 0.0, 0.0, 0.00872665)",0.721332728863,0.0225378554314,-0.582757711411,"(0.000872665, 0.0, 0.0, 0.0, 0.000872665, 0.0, 0.0, 0.0, 0.000872665)",-0.587339911871,5.19909740567,-0.662226993442,"(0.003, 0.0, 0.0, 0.0, 0.003, 0.0, 0.0, 0.0, 0.003)"
2022/01/11/19:05:33.396113,13247,1641924333,395815220,imu_iphone,0.0531128757394,0.103252090845,-0.491000155298,0.863386863268,"(0.00872665, 0.0, 0.0, 0.0, 0.00872665, 0.0, 0.0, 0.0, 0.00872665)",0.534614086151,0.0144438585266,-0.229024484754,"(0.000872665, 0.0, 0.0, 0.0, 0.000872665, 0.0, 0.0, 0.0, 0.000872665)",-0.893886514753,7.87972827852,-0.376633193493,"(0.003, 0.0, 0.0, 0.0, 0.003, 0.0, 0.0, 0.0, 0.003)"
2022/01/11/19:05:33.425742,13248,1641924333,425427926,imu_iphone,0.0559469197766,0.108647353849,-0.490949039289,0.862574481126,"(0.00872665, 0.0, 0.0, 0.0, 0.00872665, 0.0, 0.0, 0.0, 0.00872665)",0.285430908203,-0.0781387463212,0.157252520323,"(0.000872665, 0.0, 0.0, 0.0, 0.000872665, 0.0, 0.0, 0.0, 0.000872665)",-2.67177965015,9.53079545259,-0.222058539391,"(0.003, 0.0, 0.0, 0.0, 0.003, 0.0, 0.0, 0.0, 0.003)"
2022/01/11/19:05:33.456702,13249,1641924333,455727423,imu_iphone,0.0529941868956,0.112696352482,-0.484950896061,0.865629121912,"(0.00872665, 0.0, 0.0, 0.0, 0.00872665, 0.0, 0.0, 0.0, 0.00872665)",0.0138064073399,-0.224417492747,0.688716292381,"(0.000872665, 0.0, 0.0, 0.0, 0.000872665, 0.0, 0.0, 0.0, 0.000872665)",-2.96268944621,9.73575322509,-0.0737626254559,"(0.003, 0.0, 0.0, 0.0, 0.003, 0.0, 0.0, 0.0, 0.003)"
2022/01/11/19:05:33.485554,13250,1641924333,485224374,imu_iphone,0.0432169787089,0.115414585628,-0.470769337301,0.873606317075,"(0.00872665, 0.0, 0.0, 0.0, 0.00872665, 0.0, 0.0, 0.0, 0.00872665)",-0.246222600341,-0.343371123075,1.3365790844,"(0.000872665, 0.0, 0.0, 0.0, 0.000872665, 0.0, 0.0, 0.0, 0.000872665)",-2.10746106684,8.68034015536,0.0126112747192,"(0.003, 0.0, 0.0, 0.0, 0.003, 0.0, 0.0, 0.0, 0.003)"
2022/01/11/19:05:33.515491,13251,1641924333,515072165,imu_iphone,0.0266036861387,0.115982609363,-0.447561968099,0.886300492452,"(0.00872665, 0.0, 0.0, 0.0, 0.00872665, 0.0, 0.0, 0.0, 0.00872665)",-0.491078138351,-0.470361560583,1.99720442295,"(0.000872665, 0.0, 0.0, 0.0, 0.000872665, 0.0, 0.0, 0.0, 0.000872665)",-3.27124643147,8.46927555084,-0.365231707692,"(0.003, 0.0, 0.0, 0.0, 0.003, 0.0, 0.0, 0.0, 0.003)"
2022/01/11/19:05:33.545196,13252,1641924333,544795554,imu_iphone,0.00440209695714,0.11261435822,-0.417503300919,0.901659371152,"(0.00872665, 0.0, 0.0, 0.0, 0.00872665, 0.0, 0.0, 0.0, 0.00872665)",-0.743854165077,-0.558483123779,2.39497089386,"(0.000872665, 0.0, 0.0, 0.0, 0.000872665, 0.0, 0.0, 0.0, 0.000872665)",-2.58941401631,8.20861778677,-0.65201307714,"(0.003, 0.0, 0.0, 0.0, 0.003, 0.0, 0.0, 0.0, 0.003)"
2022/01/11/19:05:33.575005,13253,1641924333,574758448,imu_iphone,-0.0202808576093,0.103476252222,-0.383830308735,0.917363420972,"(0.00872665, 0.0, 0.0, 0.0, 0.00872665, 0.0, 0.0, 0.0, 0.00872665)",-0.95387673378,-0.542392551899,2.61173152924,"(0.000872665, 0.0, 0.0, 0.0, 0.000872665, 0.0, 0.0, 0.0, 0.000872665)",-1.45745767772,6.76154944181,-1.18783086956,"(0.003, 0.0, 0.0, 0.0, 0.003, 0.0, 0.0, 0.0, 0.003)"
2022/01/11/19:05:33.606029,13254,1641924333,604664828,imu_iphone,-0.0439736723529,0.0884876967805,-0.349547590293,0.931693472006,"(0.00872665, 0.0, 0.0, 0.0, 0.00872665, 0.0, 0.0, 0.0, 0.00872665)",-1.06853866577,-0.472615629435,2.69175505638,"(0.000872665, 0.0, 0.0, 0.0, 0.000872665, 0.0, 0.0, 0.0, 0.000872665)",-0.606664703786,4.58815809488,-1.39416390717,"(0.003, 0.0, 0.0, 0.0, 0.003, 0.0, 0.0, 0.0, 0.003)"
2022/01/11/19:05:33.648911,13255,1641924333,648646000,imu_iphone,-0.0643265649269,0.0689538812238,-0.315537812203,0.944215729788,"(0.00872665, 0.0, 0.0, 0.0, 0.00872665, 0.0, 0.0, 0.0, 0.00872665)",-1.09332454205,-0.357635378838,2.7486948967,"(0.000872665, 0.0, 0.0, 0.0, 0.000872665, 0.0, 0.0, 0.0, 0.000872665)",-0.267213077545,2.40973682687,-1.47990689278,"(0.003, 0.0, 0.0, 0.0, 0.003, 0.0, 0.0, 0.0, 0.003)"
2022/01/11/19:05:33.665423,13256,1641924333,664450219,imu_iphone,-0.0799646225215,0.0466502515142,-0.280905753267,0.955259844734,"(0.00872665, 0.0, 0.0, 0.0, 0.00872665, 0.0, 0.0, 0.0, 0.00872665)",-1.02469062805,-0.218968302011,2.81982684135,"(0.000872665, 0.0, 0.0, 0.0, 0.000872665, 0.0, 0.0, 0.0, 0.000872665)",0.262075421512,-0.0377563120052,-1.32225484908,"(0.003, 0.0, 0.0, 0.0, 0.003, 0.0, 0.0, 0.0, 0.003)"
2022/01/11/19:05:33.695014,13257,1641924333,694168257,imu_iphone,-0.0902814548067,0.0233793143781,-0.245168143881,0.964984584231,"(0.00872665, 0.0, 0.0, 0.0, 0.00872665, 0.0, 0.0, 0.0, 0.00872665)",-0.874140143394,-0.117848999798,2.83729457855,"(0.000872665, 0.0, 0.0, 0.0, 0.000872665, 0.0, 0.0, 0.0, 0.000872665)",-0.131830154657,-1.29586914226,-1.25109423459,"(0.003, 0.0, 0.0, 0.0, 0.003, 0.0, 0.0, 0.0, 0.003)"
2022/01/11/19:05:33.724179,13258,1641924333,723781390,imu_iphone,-0.0954802108957,0.00137306398541,-0.210814718636,0.97285086135,"(0.00872665, 0.0, 0.0, 0.0, 0.00872665, 0.0, 0.0, 0.0, 0.00872665)",-0.735314548016,-0.0346319414675,2.48385810852,"(0.000872665, 0.0, 0.0, 0.0, 0.000872665, 0.0, 0.0, 0.0, 0.000872665)",-0.495476536006,-1.28750513881,-1.15786622822,"(0.003, 0.0, 0.0, 0.0, 0.003, 0.0, 0.0, 0.0, 0.003)"
2022/01/11/19:05:33.753752,13259,1641924333,753376150,imu_iphone,-0.0967880233692,-0.0176248256395,-0.181709848111,0.978418609366,"(0.00872665, 0.0, 0.0, 0.0, 0.00872665, 0.0, 0.0, 0.0, 0.00872665)",-0.602011859417,0.00950775668025,2.13401579857,"(0.000872665, 0.0, 0.0, 0.0, 0.000872665, 0.0, 0.0, 0.0, 0.000872665)",-1.26028342634,-2.26531016171,-1.54262997508,"(0.003, 0.0, 0.0, 0.0, 0.003, 0.0, 0.0, 0.0, 0.003)"
2022/01/11/19:05:33.783942,13260,1641924333,783516124,imu_iphone,-0.0953272509855,-0.0347252973622,-0.151528163581,0.983232467214,"(0.00872665, 0.0, 0.0, 0.0, 0.00872665, 0.0, 0.0, 0.0, 0.00872665)",-0.466918230057,0.0269157961011,2.3776986599,"(0.000872665, 0.0, 0.0, 0.0, 0.000872665, 0.0, 0.0, 0.0, 0.000872665)",-0.542690171152,-2.59058784485,-1.33748976946,"(0.003, 0.0, 0.0, 0.0, 0.003, 0.0, 0.0, 0.0, 0.003)"
2022/01/11/19:05:33.813457,13261,1641924333,813129116,imu_iphone,-0.090881624708,-0.0508773338098,-0.118462675111,0.987480947563,"(0.00872665, 0.0, 0.0, 0.0, 0.00872665, 0.0, 0.0, 0.0, 0.00872665)",-0.401602655649,0.08868932724,2.4112701416,"(0.000872665, 0.0, 0.0, 0.0, 0.000872665, 0.0, 0.0, 0.0, 0.000872665)",-0.10239804849,-2.0030207321,-1.43354841292,"(0.003, 0.0, 0.0, 0.0, 0.003, 0.0, 0.0, 0.0, 0.003)"
2022/01/11/19:05:33.845371,13262,1641924333,844997160,imu_iphone,-0.0833438398097,-0.0659232093286,-0.0844590020974,0.990744473516,"(0.00872665, 0.0, 0.0, 0.0, 0.00872665, 0.0, 0.0, 0.0, 0.00872665)",-0.364806234837,0.177342578769,2.40324187279,"(0.000872665, 0.0, 0.0, 0.0, 0.000872665, 0.0, 0.0, 0.0, 0.000872665)",0.624673543274,-2.05018861279,-1.30784087777,"(0.003, 0.0, 0.0, 0.0, 0.003, 0.0, 0.0, 0.0, 0.003)"
2022/01/11/19:05:33.873001,13263,1641924333,872574499,imu_iphone,-0.0727999439541,-0.0795399461142,-0.0510009869702,0.992860747769,"(0.00872665, 0.0, 0.0, 0.0, 0.00872665, 0.0, 0.0, 0.0, 0.00872665)",-0.375958025455,0.308095991611,2.31499123573,"(0.000872665, 0.0, 0.0, 0.0, 0.000872665, 0.0, 0.0, 0.0, 0.000872665)",1.54840994775,-2.05936976463,-0.765492914915,"(0.003, 0.0, 0.0, 0.0, 0.003, 0.0, 0.0, 0.0, 0.003)"
2022/01/11/19:05:33.902819,13264,1641924333,902515675,imu_iphone,-0.0581822965687,-0.0923431406218,-0.015874779026,0.993899167993,"(0.00872665, 0.0, 0.0, 0.0, 0.00872665, 0.0, 0.0, 0.0, 0.00872665)",-0.399595886469,0.478986054659,2.42774915695,"(0.000872665, 0.0, 0.0, 0.0, 0.000872665, 0.0, 0.0, 0.0, 0.000872665)",2.40061794788,-2.21880871743,-0.811221064925,"(0.003, 0.0, 0.0, 0.0, 0.003, 0.0, 0.0, 0.0, 0.003)"
2022/01/11/19:05:33.933581,13265,1641924333,932405226,imu_iphone,-0.039048098249,-0.103745625357,0.0211975958461,0.993610966713,"(0.00872665, 0.0, 0.0, 0.0, 0.00872665, 0.0, 0.0, 0.0, 0.00872665)",-0.422363907099,0.66036260128,2.39937829971,"(0.000872665, 0.0, 0.0, 0.0, 0.000872665, 0.0, 0.0, 0.0, 0.000872665)",2.47026208699,-2.403967233,-0.465322006345,"(0.003, 0.0, 0.0, 0.0, 0.003, 0.0, 0.0, 0.0, 0.003)"
2022/01/11/19:05:33.962436,13266,1641924333,962021464,imu_iphone,-0.0167096966304,-0.11251320877,0.0569757272165,0.99187465458,"(0.00872665, 0.0, 0.0, 0.0, 0.00872665, 0.0, 0.0, 0.0, 0.00872665)",-0.422413438559,0.813865244389,2.14533376694,"(0.000872665, 0.0, 0.0, 0.0, 0.000872665, 0.0, 0.0, 0.0, 0.000872665)",1.24131096572,-3.16587405056,-0.783300610185,"(0.003, 0.0, 0.0, 0.0, 0.003, 0.0, 0.0, 0.0, 0.003)"
2022/01/11/19:05:33.992216,13267,1641924333,991928000,imu_iphone,0.00707820260039,-0.118122276062,0.0892561636175,0.988954176998,"(0.00872665, 0.0, 0.0, 0.0, 0.00872665, 0.0, 0.0, 0.0, 0.00872665)",-0.395819216967,0.927297711372,1.84998762608,"(0.000872665, 0.0, 0.0, 0.0, 0.000872665, 0.0, 0.0, 0.0, 0.000872665)",1.1089541962,-3.91246087074,-1.01988889575,"(0.003, 0.0, 0.0, 0.0, 0.003, 0.0, 0.0, 0.0, 0.003)"
2022/01/11/19:05:34.021887,13268,1641924334,21563246,imu_iphone,0.0313096467268,-0.120372028629,0.118033901179,0.985189463463,"(0.00872665, 0.0, 0.0, 0.0, 0.00872665, 0.0, 0.0, 0.0, 0.00872665)",-0.311960279942,0.999073326588,1.59844613075,"(0.000872665, 0.0, 0.0, 0.0, 0.000872665, 0.0, 0.0, 0.0, 0.000872665)",1.09246234372,-4.9075622499,-1.28322819293,"(0.003, 0.0, 0.0, 0.0, 0.003, 0.0, 0.0, 0.0, 0.003)"
2022/01/11/19:05:34.051546,13269,1641924334,51265477,imu_iphone,0.0539359148083,-0.119661868625,0.14075627489,0.981305062338,"(0.00872665, 0.0, 0.0, 0.0, 0.00872665, 0.0, 0.0, 0.0, 0.00872665)",-0.199463576078,1.00204765797,0.959494411945,"(0.000872665, 0.0, 0.0, 0.0, 0.000872665, 0.0, 0.0, 0.0, 0.000872665)",-0.527601869702,-5.32400504172,-1.31712801039,"(0.003, 0.0, 0.0, 0.0, 0.003, 0.0, 0.0, 0.0, 0.003)"
2022/01/11/19:05:34.081485,13270,1641924334,81151825,imu_iphone,0.0703928332697,-0.118580942973,0.148962084917,0.979180119409,"(0.00872665, 0.0, 0.0, 0.0, 0.00872665, 0.0, 0.0, 0.0, 0.00872665)",-0.0890821367502,0.889433979988,-0.162729516625,"(0.000872665, 0.0, 0.0, 0.0, 0.000872665, 0.0, 0.0, 0.0, 0.000872665)",-2.67975320578,-5.2553382647,-0.881747841239,"(0.003, 0.0, 0.0, 0.0, 0.003, 0.0, 0.0, 0.0, 0.003)"
2022/01/11/19:05:34.111317,13271,1641924334,110984064,imu_iphone,0.0788306137011,-0.119565387465,0.14085902035,0.979616551948,"(0.00872665, 0.0, 0.0, 0.0, 0.00872665, 0.0, 0.0, 0.0, 0.00872665)",0.00881704688072,0.711836099625,-0.949282586575,"(0.000872665, 0.0, 0.0, 0.0, 0.000872665, 0.0, 0.0, 0.0, 0.000872665)",-3.57133050889,-5.21630049884,-0.414533675909,"(0.003, 0.0, 0.0, 0.0, 0.003, 0.0, 0.0, 0.0, 0.003)"
2022/01/11/19:05:34.141020,13272,1641924334,140662517,imu_iphone,0.0824705657569,-0.121221796557,0.126848613745,0.981026661724,"(0.00872665, 0.0, 0.0, 0.0, 0.00872665, 0.0, 0.0, 0.0, 0.00872665)",0.109557561576,0.517211318016,-0.893526613712,"(0.000872665, 0.0, 0.0, 0.0, 0.000872665, 0.0, 0.0, 0.0, 0.000872665)",-4.92266619265,-6.07489219666,-0.0831579315662,"(0.003, 0.0, 0.0, 0.0, 0.003, 0.0, 0.0, 0.0, 0.003)"
2022/01/11/19:05:34.171964,13273,1641924334,171601389,imu_iphone,0.083412162968,-0.120942588922,0.114517405436,0.982497361374,"(0.00872665, 0.0, 0.0, 0.0, 0.00872665, 0.0, 0.0, 0.0, 0.00872665)",0.284670859575,0.258347153664,-0.875644922256,"(0.000872665, 0.0, 0.0, 0.0, 0.000872665, 0.0, 0.0, 0.0, 0.000872665)",-6.3965422672,-6.06759487152,-0.277395418882,"(0.003, 0.0, 0.0, 0.0, 0.003, 0.0, 0.0, 0.0, 0.003)"
2022/01/11/19:05:34.200963,13274,1641924334,200586364,imu_iphone,0.0782617144457,-0.119511292634,0.0962902421206,0.985048396911,"(0.00872665, 0.0, 0.0, 0.0, 0.00872665, 0.0, 0.0, 0.0, 0.00872665)",0.463535428047,-0.00609029550105,-1.39665222168,"(0.000872665, 0.0, 0.0, 0.0, 0.000872665, 0.0, 0.0, 0.0, 0.000872665)",-6.95950809717,-5.24211537123,-0.486922205687,"(0.003, 0.0, 0.0, 0.0, 0.003, 0.0, 0.0, 0.0, 0.003)"
2022/01/11/19:05:34.230544,13275,1641924334,230153548,imu_iphone,0.0669714787518,-0.116849844464,0.0700486800302,0.988409893368,"(0.00872665, 0.0, 0.0, 0.0, 0.00872665, 0.0, 0.0, 0.0, 0.00872665)",0.636175632477,-0.210756957531,-1.72019851208,"(0.000872665, 0.0, 0.0, 0.0, 0.000872665, 0.0, 0.0, 0.0, 0.000872665)",-6.43519294739,-5.24900339127,-0.935034102201,"(0.003, 0.0, 0.0, 0.0, 0.003, 0.0, 0.0, 0.0, 0.003)"
2022/01/11/19:05:34.260084,13276,1641924334,259808289,imu_iphone,0.0523703969782,-0.111651327232,0.0396738172344,0.991573149532,"(0.00872665, 0.0, 0.0, 0.0, 0.00872665, 0.0, 0.0, 0.0, 0.00872665)",0.782657206059,-0.353607088327,-1.94463706017,"(0.000872665, 0.0, 0.0, 0.0, 0.000872665, 0.0, 0.0, 0.0, 0.000872665)",-6.34872549176,-4.15361846298,-1.21972860038,"(0.003, 0.0, 0.0, 0.0, 0.003, 0.0, 0.0, 0.0, 0.003)"
2022/01/11/19:05:34.290030,13277,1641924334,289675738,imu_iphone,0.036397721694,-0.103621147897,0.00661303812104,0.993928634908,"(0.00872665, 0.0, 0.0, 0.0, 0.00872665, 0.0, 0.0, 0.0, 0.00872665)",0.873903155327,-0.393188238144,-2.02943181992,"(0.000872665, 0.0, 0.0, 0.0, 0.000872665, 0.0, 0.0, 0.0, 0.000872665)",-4.88149010003,-3.60988090932,-1.23193934083,"(0.003, 0.0, 0.0, 0.0, 0.003, 0.0, 0.0, 0.0, 0.003)"
2022/01/11/19:05:34.319730,13278,1641924334,319474559,imu_iphone,0.0223752464302,-0.0925203713577,-0.0238761038261,0.995172980389,"(0.00872665, 0.0, 0.0, 0.0, 0.00872665, 0.0, 0.0, 0.0, 0.00872665)",0.951073169708,-0.356467574835,-1.66917824745,"(0.000872665, 0.0, 0.0, 0.0, 0.000872665, 0.0, 0.0, 0.0, 0.000872665)",-3.32281361103,-3.77339361727,-1.19460545361,"(0.003, 0.0, 0.0, 0.0, 0.003, 0.0, 0.0, 0.0, 0.003)"
2022/01/11/19:05:34.349590,13279,1641924334,349350763,imu_iphone,0.0116192725028,-0.0791106172916,-0.0505043969151,0.995517859524,"(0.00872665, 0.0, 0.0, 0.0, 0.00872665, 0.0, 0.0, 0.0, 0.00872665)",0.994502365589,-0.286763846874,-1.7614133358,"(0.000872665, 0.0, 0.0, 0.0, 0.000872665, 0.0, 0.0, 0.0, 0.000872665)",-3.44730551004,-3.08101194799,-0.862657266855,"(0.003, 0.0, 0.0, 0.0, 0.003, 0.0, 0.0, 0.0, 0.003)"
2022/01/11/19:05:34.379310,13280,1641924334,378998712,imu_iphone,0.00280259193745,-0.0646385327675,-0.0800875323068,0.99468587641,"(0.00872665, 0.0, 0.0, 0.0, 0.00872665, 0.0, 0.0, 0.0, 0.00872665)",0.996625602245,-0.200482428074,-2.07783913612,"(0.000872665, 0.0, 0.0, 0.0, 0.000872665, 0.0, 0.0, 0.0, 0.000872665)",-3.68667122304,-1.84070114851,-1.07157126546,"(0.003, 0.0, 0.0, 0.0, 0.003, 0.0, 0.0, 0.0, 0.003)"
2022/01/11/19:05:34.425275,13281,1641924334,424857527,imu_iphone,-0.00360721066677,-0.0497396581194,-0.112703419457,0.992376387105,"(0.00872665, 0.0, 0.0, 0.0, 0.00872665, 0.0, 0.0, 0.0, 0.00872665)",0.979505121708,-0.110878460109,-2.11276555061,"(0.000872665, 0.0, 0.0, 0.0, 0.000872665, 0.0, 0.0, 0.0, 0.000872665)",-2.79761787057,-1.50722479194,-0.932557806373,"(0.003, 0.0, 0.0, 0.0, 0.003, 0.0, 0.0, 0.0, 0.003)"
2022/01/11/19:05:34.439187,13282,1641924334,438700106,imu_iphone,-0.00668035591071,-0.0349463961354,-0.143273556533,0.989043381374,"(0.00872665, 0.0, 0.0, 0.0, 0.00872665, 0.0, 0.0, 0.0, 0.00872665)",0.940891981125,-0.0360313802958,-1.99525105953,"(0.000872665, 0.0, 0.0, 0.0, 0.000872665, 0.0, 0.0, 0.0, 0.000872665)",-2.9468098703,-0.9850652913,-1.29958577871,"(0.003, 0.0, 0.0, 0.0, 0.003, 0.0, 0.0, 0.0, 0.003)"
2022/01/11/19:05:34.468896,13283,1641924334,468430027,imu_iphone,-0.0072550208305,-0.0208691439827,-0.172860221977,0.984698526027,"(0.00872665, 0.0, 0.0, 0.0, 0.00872665, 0.0, 0.0, 0.0, 0.00872665)",0.871648550034,0.00602614041418,-2.04504656792,"(0.000872665, 0.0, 0.0, 0.0, 0.000872665, 0.0, 0.0, 0.0, 0.000872665)",-2.87259525508,0.568984332494,-1.35602778196,"(0.003, 0.0, 0.0, 0.0, 0.003, 0.0, 0.0, 0.0, 0.003)"
2022/01/11/19:05:34.498512,13284,1641924334,498188216,imu_iphone,-0.005786774318,-0.00824542217903,-0.200584423938,0.979624629707,"(0.00872665, 0.0, 0.0, 0.0, 0.00872665, 0.0, 0.0, 0.0, 0.00872665)",0.793112337589,0.0374493598938,-1.66924798489,"(0.000872665, 0.0, 0.0, 0.0, 0.000872665, 0.0, 0.0, 0.0, 0.000872665)",-2.58703332245,0.354483319335,-1.43166794837,"(0.003, 0.0, 0.0, 0.0, 0.003, 0.0, 0.0, 0.0, 0.003)"
2022/01/11/19:05:34.528431,13285,1641924334,528058107,imu_iphone,-0.0032973177893,0.00336518161216,-0.222677359031,0.974880811701,"(0.00872665, 0.0, 0.0, 0.0, 0.00872665, 0.0, 0.0, 0.0, 0.00872665)",0.761922180653,-0.0121918460354,-1.51518654823,"(0.000872665, 0.0, 0.0, 0.0, 0.000872665, 0.0, 0.0, 0.0, 0.000872665)",-3.77207419306,0.959169873521,-2.01823957264,"(0.003, 0.0, 0.0, 0.0, 0.003, 0.0, 0.0, 0.0, 0.003)"
2022/01/11/19:05:34.558015,13286,1641924334,557606779,imu_iphone,-0.000562521668565,0.0143712964307,-0.247224455974,0.968851494181,"(0.00872665, 0.0, 0.0, 0.0, 0.00872665, 0.0, 0.0, 0.0, 0.00872665)",0.73221129179,-0.0658893287182,-1.91382372379,"(0.000872665, 0.0, 0.0, 0.0, 0.000872665, 0.0, 0.0, 0.0, 0.000872665)",-3.79668658555,1.39027477786,-1.68341630995,"(0.003, 0.0, 0.0, 0.0, 0.003, 0.0, 0.0, 0.0, 0.003)"
2022/01/11/19:05:34.588264,13287,1641924334,587893710,imu_iphone,0.00283242533914,0.0251530958558,-0.277618936191,0.960357759069,"(0.00872665, 0.0, 0.0, 0.0, 0.00872665, 0.0, 0.0, 0.0, 0.00872665)",0.732028484344,-0.125536039472,-2.3563952446,"(0.000872665, 0.0, 0.0, 0.0, 0.000872665, 0.0, 0.0, 0.0, 0.000872665)",-3.89000054598,2.01828854308,-1.8678123486,"(0.003, 0.0, 0.0, 0.0, 0.003, 0.0, 0.0, 0.0, 0.003)"
2022/01/11/19:05:34.617850,13288,1641924334,617428340,imu_iphone,0.00733514183711,0.0359254290923,-0.313351540875,0.948929065352,"(0.00872665, 0.0, 0.0, 0.0, 0.00872665, 0.0, 0.0, 0.0, 0.00872665)",0.767061769962,-0.188805386424,-2.63755655289,"(0.000872665, 0.0, 0.0, 0.0, 0.000872665, 0.0, 0.0, 0.0, 0.000872665)",-3.98363873452,2.31727115124,-1.56697427273,"(0.003, 0.0, 0.0, 0.0, 0.003, 0.0, 0.0, 0.0, 0.003)"
2022/01/11/19:05:34.647795,13289,1641924334,647338792,imu_iphone,0.0128432559872,0.0469357187871,-0.348322916401,0.936110695905,"(0.00872665, 0.0, 0.0, 0.0, 0.00872665, 0.0, 0.0, 0.0, 0.00872665)",0.813676297665,-0.233036905527,-2.2413816452,"(0.000872665, 0.0, 0.0, 0.0, 0.000872665, 0.0, 0.0, 0.0, 0.000872665)",-3.02056489438,2.35299851596,-1.21822118819,"(0.003, 0.0, 0.0, 0.0, 0.003, 0.0, 0.0, 0.0, 0.003)"
2022/01/11/19:05:34.677261,13290,1641924334,676892932,imu_iphone,0.0180899541651,0.058737121644,-0.373952437893,0.925409249085,"(0.00872665, 0.0, 0.0, 0.0, 0.00872665, 0.0, 0.0, 0.0, 0.00872665)",0.865514934063,-0.295081108809,-1.58681130409,"(0.000872665, 0.0, 0.0, 0.0, 0.000872665, 0.0, 0.0, 0.0, 0.000872665)",-3.62220450103,2.96266985804,-1.17147854626,"(0.003, 0.0, 0.0, 0.0, 0.003, 0.0, 0.0, 0.0, 0.003)"
2022/01/11/19:05:34.707965,13291,1641924334,707553179,imu_iphone,0.0232709894435,0.0713303410713,-0.394628897036,0.915772066137,"(0.00872665, 0.0, 0.0, 0.0, 0.00872665, 0.0, 0.0, 0.0, 0.00872665)",0.895618140697,-0.332766622305,-1.59415626526,"(0.000872665, 0.0, 0.0, 0.0, 0.000872665, 0.0, 0.0, 0.0, 0.000872665)",-2.65977707058,4.02237770766,-0.982538051605,"(0.003, 0.0, 0.0, 0.0, 0.003, 0.0, 0.0, 0.0, 0.003)"
2022/01/11/19:05:34.737006,13292,1641924334,736502087,imu_iphone,0.0300255684258,0.0833133878726,-0.416656831424,0.904739978927,"(0.00872665, 0.0, 0.0, 0.0, 0.00872665, 0.0, 0.0, 0.0, 0.00872665)",0.881470441818,-0.316299051046,-1.62172734737,"(0.000872665, 0.0, 0.0, 0.0, 0.000872665, 0.0, 0.0, 0.0, 0.000872665)",-1.77466503382,4.8479031086,-0.888395540714,"(0.003, 0.0, 0.0, 0.0, 0.003, 0.0, 0.0, 0.0, 0.003)"
2022/01/11/19:05:34.767370,13293,1641924334,766907181,imu_iphone,0.0372864597587,0.0947356295181,-0.435441786905,0.894441351144,"(0.00872665, 0.0, 0.0, 0.0, 0.00872665, 0.0, 0.0, 0.0, 0.00872665)",0.862200021744,-0.286176383495,-1.27466952801,"(0.000872665, 0.0, 0.0, 0.0, 0.000872665, 0.0, 0.0, 0.0, 0.000872665)",-1.01688985884,4.97408777654,-0.857502946258,"(0.003, 0.0, 0.0, 0.0, 0.003, 0.0, 0.0, 0.0, 0.003)"
2022/01/11/19:05:34.796953,13294,1641924334,796561345,imu_iphone,0.0441602902548,0.106218491948,-0.450256411793,0.885458448699,"(0.00872665, 0.0, 0.0, 0.0, 0.00872665, 0.0, 0.0, 0.0, 0.00872665)",0.891571819782,-0.355463385582,-1.10090172291,"(0.000872665, 0.0, 0.0, 0.0, 0.000872665, 0.0, 0.0, 0.0, 0.000872665)",-0.530886287279,6.00442681611,-0.967349908948,"(0.003, 0.0, 0.0, 0.0, 0.003, 0.0, 0.0, 0.0, 0.003)"
2022/01/11/19:05:34.826647,13295,1641924334,826331505,imu_iphone,0.0508963555215,0.115757802842,-0.461799382694,0.877924269068,"(0.00872665, 0.0, 0.0, 0.0, 0.00872665, 0.0, 0.0, 0.0, 0.00872665)",0.502705097198,-0.118253000081,-0.709003865719,"(0.000872665, 0.0, 0.0, 0.0, 0.000872665, 0.0, 0.0, 0.0, 0.000872665)",0.852774960771,7.24794305921,-0.274510987401,"(0.003, 0.0, 0.0, 0.0, 0.003, 0.0, 0.0, 0.0, 0.003)"
2022/01/11/19:05:34.855977,13296,1641924334,855660954,imu_iphone,0.055377764606,0.121803529143,-0.467893569844,0.873597625211,"(0.00872665, 0.0, 0.0, 0.0, 0.00872665, 0.0, 0.0, 0.0, 0.00872665)",0.40172418952,-0.101838581264,-0.281868726015,"(0.000872665, 0.0, 0.0, 0.0, 0.000872665, 0.0, 0.0, 0.0, 0.000872665)",0.503544999249,7.69148594141,-0.223268913031,"(0.003, 0.0, 0.0, 0.0, 0.003, 0.0, 0.0, 0.0, 0.003)"
2022/01/11/19:05:34.888300,13297,1641924334,885683784,imu_iphone,0.0571207310059,0.125986789273,-0.469417935002,0.872073020633,"(0.00872665, 0.0, 0.0, 0.0, 0.00872665, 0.0, 0.0, 0.0, 0.00872665)",0.168968766928,-0.074943587184,-0.0158302467316,"(0.000872665, 0.0, 0.0, 0.0, 0.000872665, 0.0, 0.0, 0.0, 0.000872665)",0.61679347001,8.39070183635,-0.133241087794,"(0.003, 0.0, 0.0, 0.0, 0.003, 0.0, 0.0, 0.0, 0.003)"
2022/01/11/19:05:34.915479,13298,1641924334,915246620,imu_iphone,0.0557533729229,0.127328047277,-0.467807005933,0.872832019912,"(0.00872665, 0.0, 0.0, 0.0, 0.00872665, 0.0, 0.0, 0.0, 0.00872665)",-0.0755494982004,-0.100499920547,0.150009572506,"(0.000872665, 0.0, 0.0, 0.0, 0.000872665, 0.0, 0.0, 0.0, 0.000872665)",-0.627810135931,9.11011752248,-0.0904751372337,"(0.003, 0.0, 0.0, 0.0, 0.003, 0.0, 0.0, 0.0, 0.003)"
2022/01/11/19:05:34.945750,13299,1641924334,945418354,imu_iphone,0.0522031042091,0.125321785339,-0.467314409876,0.873605476375,"(0.00872665, 0.0, 0.0, 0.0, 0.00872665, 0.0, 0.0, 0.0, 0.00872665)",-0.398644864559,-0.160789400339,-0.0807338431478,"(0.000872665, 0.0, 0.0, 0.0, 0.000872665, 0.0, 0.0, 0.0, 0.000872665)",-1.37569036022,10.4058406305,-0.150100364685,"(0.003, 0.0, 0.0, 0.0, 0.003, 0.0, 0.0, 0.0, 0.003)"
2022/01/11/19:05:34.975312,13300,1641924334,974925687,imu_iphone,0.0468424839322,0.119060014389,-0.469832771897,0.873434405737,"(0.00872665, 0.0, 0.0, 0.0, 0.00872665, 0.0, 0.0, 0.0, 0.00872665)",-0.703740060329,-0.20337061584,-0.126891762018,"(0.000872665, 0.0, 0.0, 0.0, 0.000872665, 0.0, 0.0, 0.0, 0.000872665)",-0.127941427343,9.74862353146,-0.40170196116,"(0.003, 0.0, 0.0, 0.0, 0.003, 0.0, 0.0, 0.0, 0.003)"
2022/01/11/19:05:35.005121,13301,1641924335,4733519,imu_iphone,0.0381423184417,0.110011359982,-0.470120039695,0.874888457174,"(0.00872665, 0.0, 0.0, 0.0, 0.00872665, 0.0, 0.0, 0.0, 0.00872665)",-0.924071311951,-0.231448039412,0.21960157156,"(0.000872665, 0.0, 0.0, 0.0, 0.000872665, 0.0, 0.0, 0.0, 0.000872665)",0.880759807974,8.89610358238,-0.85037986815,"(0.003, 0.0, 0.0, 0.0, 0.003, 0.0, 0.0, 0.0, 0.003)"
2022/01/11/19:05:35.034928,13302,1641924335,34473398,imu_iphone,0.0262799047382,0.0985443108981,-0.466005020319,0.878884353276,"(0.00872665, 0.0, 0.0, 0.0, 0.00872665, 0.0, 0.0, 0.0, 0.00872665)",-1.16684985161,-0.204269662499,0.544920921326,"(0.000872665, 0.0, 0.0, 0.0, 0.000872665, 0.0, 0.0, 0.0, 0.000872665)",1.25105871275,7.94595676661,-1.37359749556,"(0.003, 0.0, 0.0, 0.0, 0.003, 0.0, 0.0, 0.0, 0.003)"
2022/01/11/19:05:35.064879,13303,1641924335,64466004,imu_iphone,0.0126340937371,0.0841195317513,-0.459245838344,0.884227088489,"(0.00872665, 0.0, 0.0, 0.0, 0.00872665, 0.0, 0.0, 0.0, 0.00872665)",-1.31574487686,-0.193811327219,0.724940180779,"(0.000872665, 0.0, 0.0, 0.0, 0.000872665, 0.0, 0.0, 0.0, 0.000872665)",0.948465595096,6.9841365695,-1.77836164355,"(0.003, 0.0, 0.0, 0.0, 0.003, 0.0, 0.0, 0.0, 0.003)"
2022/01/11/19:05:35.094638,13304,1641924335,94224726,imu_iphone,-0.00159322324177,0.067521153791,-0.450017469196,0.890462033356,"(0.00872665, 0.0, 0.0, 0.0, 0.00872665, 0.0, 0.0, 0.0, 0.00872665)",-1.40934312344,-0.155455261469,0.985239923,"(0.000872665, 0.0, 0.0, 0.0, 0.000872665, 0.0, 0.0, 0.0, 0.000872665)",0.783719855547,5.11138040006,-1.9206413573,"(0.003, 0.0, 0.0, 0.0, 0.003, 0.0, 0.0, 0.0, 0.003)"
2022/01/11/19:05:35.124311,13305,1641924335,123947109,imu_iphone,-0.0156605488484,0.04926705961,-0.436168445585,0.898378868364,"(0.00872665, 0.0, 0.0, 0.0, 0.00872665, 0.0, 0.0, 0.0, 0.00872665)",-1.37629199028,-0.122139386833,1.42446196079,"(0.000872665, 0.0, 0.0, 0.0, 0.000872665, 0.0, 0.0, 0.0, 0.000872665)",0.58447985597,2.81070569336,-2.08371026158,"(0.003, 0.0, 0.0, 0.0, 0.003, 0.0, 0.0, 0.0, 0.003)"
2022/01/11/19:05:35.153661,13306,1641924335,153372332,imu_iphone,-0.0281896811332,0.030246572433,-0.417212582739,0.907867913045,"(0.00872665, 0.0, 0.0, 0.0, 0.00872665, 0.0, 0.0, 0.0, 0.00872665)",-1.32328343391,-0.0701465085149,1.72902476788,"(0.000872665, 0.0, 0.0, 0.0, 0.000872665, 0.0, 0.0, 0.0, 0.000872665)",-0.0910871945322,1.72690980032,-2.00479097664,"(0.003, 0.0, 0.0, 0.0, 0.003, 0.0, 0.0, 0.0, 0.003)"
2022/01/11/19:05:35.183059,13307,1641924335,182741509,imu_iphone,-0.0382512734861,0.0107077121982,-0.392799524573,0.918765867058,"(0.00872665, 0.0, 0.0, 0.0, 0.00872665, 0.0, 0.0, 0.0, 0.00872665)",-1.16609156132,-0.050607226789,2.19648647308,"(0.000872665, 0.0, 0.0, 0.0, 0.000872665, 0.0, 0.0, 0.0, 0.000872665)",-0.843993758485,0.167217576876,-2.05310125709,"(0.003, 0.0, 0.0, 0.0, 0.003, 0.0, 0.0, 0.0, 0.003)"
2022/01/11/19:05:35.212455,13308,1641924335,212084415,imu_iphone,-0.0449361139081,-0.00855303341277,-0.362764726045,0.930757403851,"(0.00872665, 0.0, 0.0, 0.0, 0.00872665, 0.0, 0.0, 0.0, 0.00872665)",-1.0421756506,-0.0036430475302,2.34865307808,"(0.000872665, 0.0, 0.0, 0.0, 0.000872665, 0.0, 0.0, 0.0, 0.000872665)",-0.794495031461,-0.107188270278,-2.19671998322,"(0.003, 0.0, 0.0, 0.0, 0.003, 0.0, 0.0, 0.0, 0.003)"
2022/01/11/19:05:35.243518,13309,1641924335,243103146,imu_iphone,-0.0480701828101,-0.0271555244217,-0.332818953021,0.941373135121,"(0.00872665, 0.0, 0.0, 0.0, 0.00872665, 0.0, 0.0, 0.0, 0.00872665)",-0.948144435883,0.0383043512702,2.11067843437,"(0.000872665, 0.0, 0.0, 0.0, 0.000872665, 0.0, 0.0, 0.0, 0.000872665)",-1.48945481122,-0.542417252362,-2.34510243595,"(0.003, 0.0, 0.0, 0.0, 0.003, 0.0, 0.0, 0.0, 0.003)"
2022/01/11/19:05:35.273124,13310,1641924335,272847849,imu_iphone,-0.0486193745908,-0.0444295914072,-0.305785136062,0.949819782056,"(0.00872665, 0.0, 0.0, 0.0, 0.00872665, 0.0, 0.0, 0.0, 0.00872665)",-0.880275666714,0.0555538311601,1.92080819607,"(0.000872665, 0.0, 0.0, 0.0, 0.000872665, 0.0, 0.0, 0.0, 0.000872665)",-2.30713383347,-0.968921713606,-2.46725427926,"(0.003, 0.0, 0.0, 0.0, 0.003, 0.0, 0.0, 0.0, 0.003)"
2022/01/11/19:05:35.424671,13311,1641924335,423894799,imu_iphone,-0.0470154981475,-0.060840736277,-0.27909256165,0.957180907548,"(0.00872665, 0.0, 0.0, 0.0, 0.00872665, 0.0, 0.0, 0.0, 0.00872665)",-0.827195346355,0.0691131278872,1.91695022583,"(0.000872665, 0.0, 0.0, 0.0, 0.000872665, 0.0, 0.0, 0.0, 0.000872665)",-2.41449163646,-1.35377587304,-2.42733767688,"(0.003, 0.0, 0.0, 0.0, 0.003, 0.0, 0.0, 0.0, 0.003)"
2022/01/11/19:05:35.453607,13312,1641924335,451690164,imu_iphone,0.00698670510011,-0.134958918174,-0.117072448966,0.983885825719,"(0.00872665, 0.0, 0.0, 0.0, 0.00872665, 0.0, 0.0, 0.0, 0.00872665)",-0.738148093224,0.407618463039,2.04189610481,"(0.000872665, 0.0, 0.0, 0.0, 0.000872665, 0.0, 0.0, 0.0, 0.000872665)",-4.03829353631,-5.79431179941,-0.845551237464,"(0.003, 0.0, 0.0, 0.0, 0.003, 0.0, 0.0, 0.0, 0.003)"
2022/01/11/19:05:35.600835,13313,1641924335,600517472,imu_iphone,0.0236132017581,-0.144560940842,-0.0869717742598,0.985383408409,"(0.00872665, 0.0, 0.0, 0.0, 0.00872665, 0.0, 0.0, 0.0, 0.00872665)",-0.642071485519,0.40278840065,1.44989585876,"(0.000872665, 0.0, 0.0, 0.0, 0.000872665, 0.0, 0.0, 0.0, 0.000872665)",-4.98609035611,-7.05090124726,-0.372905593514,"(0.003, 0.0, 0.0, 0.0, 0.003, 0.0, 0.0, 0.0, 0.003)"
2022/01/11/19:05:35.630203,13314,1641924335,629756251,imu_iphone,0.0489815254566,-0.162385272292,-0.0531085630123,0.984078916572,"(0.00872665, 0.0, 0.0, 0.0, 0.00872665, 0.0, 0.0, 0.0, 0.00872665)",0.11356703192,-0.0718252956867,0.108986787498,"(0.000872665, 0.0, 0.0, 0.0, 0.000872665, 0.0, 0.0, 0.0, 0.000872665)",-4.057202847,-7.48538386881,-0.408605183959,"(0.003, 0.0, 0.0, 0.0, 0.003, 0.0, 0.0, 0.0, 0.003)"
2022/01/11/19:05:35.660212,13315,1641924335,659847721,imu_iphone,0.0462442452727,-0.159495493388,-0.0559494362943,0.984526443498,"(0.00872665, 0.0, 0.0, 0.0, 0.00872665, 0.0, 0.0, 0.0, 0.00872665)",0.312510102987,-0.185750022531,-0.334803938866,"(0.000872665, 0.0, 0.0, 0.0, 0.000872665, 0.0, 0.0, 0.0, 0.000872665)",-3.52938813865,-7.83347738743,-0.501549600363,"(0.003, 0.0, 0.0, 0.0, 0.003, 0.0, 0.0, 0.0, 0.003)"
2022/01/11/19:05:35.706697,13316,1641924335,706182803,imu_iphone,0.0392741374637,-0.154159501767,-0.0655503053397,0.985086568587,"(0.00872665, 0.0, 0.0, 0.0, 0.00872665, 0.0, 0.0, 0.0, 0.00872665)",0.524386584759,-0.299144774675,-0.637550890446,"(0.000872665, 0.0, 0.0, 0.0, 0.000872665, 0.0, 0.0, 0.0, 0.000872665)",-3.18649571836,-7.59987878323,-0.708494256735,"(0.003, 0.0, 0.0, 0.0, 0.003, 0.0, 0.0, 0.0, 0.003)"
2022/01/11/19:05:35.721262,13317,1641924335,719747167,imu_iphone,0.0293067206809,-0.145712943496,-0.0799374648234,0.985656560846,"(0.00872665, 0.0, 0.0, 0.0, 0.00872665, 0.0, 0.0, 0.0, 0.00872665)",0.739395499229,-0.398002535105,-0.884439349174,"(0.000872665, 0.0, 0.0, 0.0, 0.000872665, 0.0, 0.0, 0.0, 0.000872665)",-2.73494975209,-7.02188034654,-0.920665154457,"(0.003, 0.0, 0.0, 0.0, 0.003, 0.0, 0.0, 0.0, 0.003)"
2022/01/11/19:05:35.750099,13318,1641924335,749612706,imu_iphone,0.0173687052085,-0.133799189233,-0.0979666797446,0.986001336054,"(0.00872665, 0.0, 0.0, 0.0, 0.00872665, 0.0, 0.0, 0.0, 0.00872665)",0.948245882988,-0.481170594692,-1.09564697742,"(0.000872665, 0.0, 0.0, 0.0, 0.000872665, 0.0, 0.0, 0.0, 0.000872665)",-2.55290487885,-6.45020684302,-1.34166292727,"(0.003, 0.0, 0.0, 0.0, 0.003, 0.0, 0.0, 0.0, 0.003)"
2022/01/11/19:05:35.779922,13319,1641924335,779558726,imu_iphone,0.0044117741166,-0.118320034983,-0.119519059616,0.985746468398,"(0.00872665, 0.0, 0.0, 0.0, 0.00872665, 0.0, 0.0, 0.0, 0.00872665)",1.12732362747,-0.515946984291,-1.40545189381,"(0.000872665, 0.0, 0.0, 0.0, 0.000872665, 0.0, 0.0, 0.0, 0.000872665)",-1.96070896402,-5.21579588413,-1.75113466859,"(0.003, 0.0, 0.0, 0.0, 0.003, 0.0, 0.0, 0.0, 0.003)"
2022/01/11/19:05:35.809939,13320,1641924335,809388965,imu_iphone,-0.00846170401962,-0.0995512531695,-0.144527366241,0.984443897825,"(0.00872665, 0.0, 0.0, 0.0, 0.00872665, 0.0, 0.0, 0.0, 0.00872665)",1.26461327076,-0.522756636143,-1.62166833878,"(0.000872665, 0.0, 0.0, 0.0, 0.000872665, 0.0, 0.0, 0.0, 0.000872665)",-1.81782157838,-3.76253007531,-2.25810931563,"(0.003, 0.0, 0.0, 0.0, 0.003, 0.0, 0.0, 0.0, 0.003)"
2022/01/11/19:05:35.839853,13321,1641924335,839085256,imu_iphone,-0.0196623907191,-0.0783010879212,-0.171158700594,0.981930256807,"(0.00872665, 0.0, 0.0, 0.0, 0.00872665, 0.0, 0.0, 0.0, 0.00872665)",1.31964635849,-0.48880776763,-1.70490705967,"(0.000872665, 0.0, 0.0, 0.0, 0.000872665, 0.0, 0.0, 0.0, 0.000872665)",-1.41096558899,-1.79188435301,-2.33548610508,"(0.003, 0.0, 0.0, 0.0, 0.003, 0.0, 0.0, 0.0, 0.003)"
2022/01/11/19:05:35.869411,13322,1641924335,868999980,imu_iphone,-0.0279313095977,-0.0559500700262,-0.196620634481,0.978483396744,"(0.00872665, 0.0, 0.0, 0.0, 0.00872665, 0.0, 0.0, 0.0, 0.00872665)",1.31295073032,-0.44108068943,-1.7191580534,"(0.000872665, 0.0, 0.0, 0.0, 0.000872665, 0.0, 0.0, 0.0, 0.000872665)",-1.40612760276,-0.628621802554,-2.37893734932,"(0.003, 0.0, 0.0, 0.0, 0.003, 0.0, 0.0, 0.0, 0.003)"
2022/01/11/19:05:35.901673,13323,1641924335,901403672,imu_iphone,-0.0335279247024,-0.0333856784465,-0.222936314831,0.973684073131,"(0.00872665, 0.0, 0.0, 0.0, 0.00872665, 0.0, 0.0, 0.0, 0.00872665)",1.25657880306,-0.379953920841,-2.0144944191,"(0.000872665, 0.0, 0.0, 0.0, 0.000872665, 0.0, 0.0, 0.0, 0.000872665)",-0.905112437904,0.939224728569,-2.24195287406,"(0.003, 0.0, 0.0, 0.0, 0.003, 0.0, 0.0, 0.0, 0.003)"
2022/01/11/19:05:35.929068,13324,1641924335,928616984,imu_iphone,-0.0361626723765,-0.0113851945503,-0.25207302601,0.96696526723,"(0.00872665, 0.0, 0.0, 0.0, 0.00872665, 0.0, 0.0, 0.0, 0.00872665)",1.163636446,-0.289807856083,-2.06247806549,"(0.000872665, 0.0, 0.0, 0.0, 0.000872665, 0.0, 0.0, 0.0, 0.000872665)",-0.189780520275,1.71127317622,-1.99675748706,"(0.003, 0.0, 0.0, 0.0, 0.003, 0.0, 0.0, 0.0, 0.003)"
2022/01/11/19:05:35.958254,13325,1641924335,958036082,imu_iphone,-0.0353713917749,0.00834490440333,-0.277676098617,0.959987089221,"(0.00872665, 0.0, 0.0, 0.0, 0.00872665, 0.0, 0.0, 0.0, 0.00872665)",1.03980958462,-0.189113780856,-1.75037622452,"(0.000872665, 0.0, 0.0, 0.0, 0.000872665, 0.0, 0.0, 0.0, 0.000872665)",-0.0214943647385,2.0560726659,-1.81663927138,"(0.003, 0.0, 0.0, 0.0, 0.003, 0.0, 0.0, 0.0, 0.003)"
2022/01/11/19:05:35.988449,13326,1641924335,988109569,imu_iphone,-0.0320464023079,0.0255425377641,-0.30059206692,0.952871983095,"(0.00872665, 0.0, 0.0, 0.0, 0.00872665, 0.0, 0.0, 0.0, 0.00872665)",0.931370615959,-0.127386137843,-1.80429911613,"(0.000872665, 0.0, 0.0, 0.0, 0.000872665, 0.0, 0.0, 0.0, 0.000872665)",-1.19799128383,2.30378834903,-1.78370892227,"(0.003, 0.0, 0.0, 0.0, 0.003, 0.0, 0.0, 0.0, 0.003)"
2022/01/11/19:05:36.018086,13327,1641924336,17646533,imu_iphone,-0.026752925891,0.0410361430303,-0.325787290087,0.944173160781,"(0.00872665, 0.0, 0.0, 0.0, 0.00872665, 0.0, 0.0, 0.0, 0.00872665)",0.845559418201,-0.0989153906703,-1.96373462677,"(0.000872665, 0.0, 0.0, 0.0, 0.000872665, 0.0, 0.0, 0.0, 0.000872665)",-1.72604485095,2.51237870425,-1.92567464054,"(0.003, 0.0, 0.0, 0.0, 0.003, 0.0, 0.0, 0.0, 0.003)"
2022/01/11/19:05:36.051748,13328,1641924336,51424614,imu_iphone,-0.0198818317126,0.0548824618568,-0.350683452562,0.934673068109,"(0.00872665, 0.0, 0.0, 0.0, 0.00872665, 0.0, 0.0, 0.0, 0.00872665)",0.798830747604,-0.067908346653,-1.77555334568,"(0.000872665, 0.0, 0.0, 0.0, 0.000872665, 0.0, 0.0, 0.0, 0.000872665)",-1.06273451462,2.07494850129,-1.66941982985,"(0.003, 0.0, 0.0, 0.0, 0.003, 0.0, 0.0, 0.0, 0.003)"
2022/01/11/19:05:36.077702,13329,1641924336,77361504,imu_iphone,-0.011924982081,0.0674918208806,-0.37274303093,0.925400065815,"(0.00872665, 0.0, 0.0, 0.0, 0.00872665, 0.0, 0.0, 0.0, 0.00872665)",0.800308704376,-0.0608306899667,-1.69442522526,"(0.000872665, 0.0, 0.0, 0.0, 0.000872665, 0.0, 0.0, 0.0, 0.000872665)",-2.00046725303,1.93678435028,-1.68619724572,"(0.003, 0.0, 0.0, 0.0, 0.003, 0.0, 0.0, 0.0, 0.003)"
2022/01/11/19:05:36.107466,13330,1641924336,107089223,imu_iphone,-0.00252239110064,0.0793735289815,-0.394978870545,0.915251425709,"(0.00872665, 0.0, 0.0, 0.0, 0.00872665, 0.0, 0.0, 0.0, 0.00872665)",0.810350775719,-0.0387471392751,-1.66523563862,"(0.000872665, 0.0, 0.0, 0.0, 0.000872665, 0.0, 0.0, 0.0, 0.000872665)",-1.20457290977,2.29478290603,-1.32393767774,"(0.003, 0.0, 0.0, 0.0, 0.003, 0.0, 0.0, 0.0, 0.003)"
2022/01/11/19:05:36.137313,13331,1641924336,136932657,imu_iphone,0.00757588937041,0.090473380716,-0.413395408136,0.906014022968,"(0.00872665, 0.0, 0.0, 0.0, 0.00872665, 0.0, 0.0, 0.0, 0.00872665)",0.83648532629,0.0112588722259,-1.19075930119,"(0.000872665, 0.0, 0.0, 0.0, 0.000872665, 0.0, 0.0, 0.0, 0.000872665)",-0.4521201263,1.83346039519,-1.1502683562,"(0.003, 0.0, 0.0, 0.0, 0.003, 0.0, 0.0, 0.0, 0.003)"
2022/01/11/19:05:36.166314,13332,1641924336,166032376,imu_iphone,0.0179258412465,0.101267041666,-0.427335326895,0.898225010159,"(0.00872665, 0.0, 0.0, 0.0, 0.00872665, 0.0, 0.0, 0.0, 0.00872665)",0.873533904552,0.0298255868256,-1.15471947193,"(0.000872665, 0.0, 0.0, 0.0, 0.000872665, 0.0, 0.0, 0.0, 0.000872665)",-1.49813134834,2.52426697075,-1.31580303133,"(0.003, 0.0, 0.0, 0.0, 0.003, 0.0, 0.0, 0.0, 0.003)"
2022/01/11/19:05:36.196224,13333,1641924336,195795193,imu_iphone,0.0299613794982,0.111392934442,-0.443210809842,0.888964626931,"(0.00872665, 0.0, 0.0, 0.0, 0.00872665, 0.0, 0.0, 0.0, 0.00872665)",0.880890011787,0.0398065522313,-1.28622710705,"(0.000872665, 0.0, 0.0, 0.0, 0.000872665, 0.0, 0.0, 0.0, 0.000872665)",-1.65330548823,3.1161981529,-0.978373079896,"(0.003, 0.0, 0.0, 0.0, 0.003, 0.0, 0.0, 0.0, 0.003)"
2022/01/11/19:05:36.226624,13334,1641924336,226322576,imu_iphone,0.0427326706829,0.120736720053,-0.458373162469,0.879483147772,"(0.00872665, 0.0, 0.0, 0.0, 0.00872665, 0.0, 0.0, 0.0, 0.00872665)",0.883459568024,0.0643681883812,-1.03401196003,"(0.000872665, 0.0, 0.0, 0.0, 0.000872665, 0.0, 0.0, 0.0, 0.000872665)",-1.0295873069,3.16986389816,-0.948432412148,"(0.003, 0.0, 0.0, 0.0, 0.003, 0.0, 0.0, 0.0, 0.003)"
2022/01/11/19:05:36.256560,13335,1641924336,256186631,imu_iphone,0.0541778246307,0.130103010733,-0.467955949982,0.872442089077,"(0.00872665, 0.0, 0.0, 0.0, 0.00872665, 0.0, 0.0, 0.0, 0.00872665)",0.884887933731,0.0928632318974,-0.510511994362,"(0.000872665, 0.0, 0.0, 0.0, 0.000872665, 0.0, 0.0, 0.0, 0.000872665)",0.054726740811,2.58028622031,-0.931416429877,"(0.003, 0.0, 0.0, 0.0, 0.003, 0.0, 0.0, 0.0, 0.003)"
2022/01/11/19:05:36.286238,13336,1641924336,285787922,imu_iphone,0.0637572000767,0.1398881854,-0.47184128152,0.868177470381,"(0.00872665, 0.0, 0.0, 0.0, 0.00872665, 0.0, 0.0, 0.0, 0.00872665)",0.865965485573,0.100224122405,-0.28728339076,"(0.000872665, 0.0, 0.0, 0.0, 0.000872665, 0.0, 0.0, 0.0, 0.000872665)",-0.587642541826,3.21852851987,-1.06140003383,"(0.003, 0.0, 0.0, 0.0, 0.003, 0.0, 0.0, 0.0, 0.003)"
2022/01/11/19:05:36.316111,13337,1641924336,315854866,imu_iphone,0.0726396994367,0.149119786804,-0.474863274892,0.864286777296,"(0.00872665, 0.0, 0.0, 0.0, 0.00872665, 0.0, 0.0, 0.0, 0.00872665)",0.775998950005,0.0808320641518,-0.441086143255,"(0.000872665, 0.0, 0.0, 0.0, 0.000872665, 0.0, 0.0, 0.0, 0.000872665)",-1.02274774566,4.88584627569,-0.82272136867,"(0.003, 0.0, 0.0, 0.0, 0.003, 0.0, 0.0, 0.0, 0.003)"
2022/01/11/19:05:36.347157,13338,1641924336,346437034,imu_iphone,0.0823146353567,0.155700079675,-0.481747842386,0.858429264618,"(0.00872665, 0.0, 0.0, 0.0, 0.00872665, 0.0, 0.0, 0.0, 0.00872665)",0.620398342609,0.0470752045512,-0.592403948307,"(0.000872665, 0.0, 0.0, 0.0, 0.000872665, 0.0, 0.0, 0.0, 0.000872665)",-1.56129034057,6.16004987597,-0.632676919699,"(0.003, 0.0, 0.0, 0.0, 0.003, 0.0, 0.0, 0.0, 0.003)"
2022/01/11/19:05:36.375564,13339,1641924336,375230848,imu_iphone,0.0910380166976,0.159594028611,-0.490677204132,0.851749791249,"(0.00872665, 0.0, 0.0, 0.0, 0.00872665, 0.0, 0.0, 0.0, 0.00872665)",0.412817209959,-0.046105325222,-0.793507158756,"(0.000872665, 0.0, 0.0, 0.0, 0.000872665, 0.0, 0.0, 0.0, 0.000872665)",-2.73562101245,7.61604048729,-0.246350212097,"(0.003, 0.0, 0.0, 0.0, 0.003, 0.0, 0.0, 0.0, 0.003)"
2022/01/11/19:05:36.405501,13340,1641924336,405234968,imu_iphone,0.0995692730155,0.159126824832,-0.505020868465,0.842447942549,"(0.00872665, 0.0, 0.0, 0.0, 0.00872665, 0.0, 0.0, 0.0, 0.00872665)",0.0964555740356,-0.122968934476,-1.26016139984,"(0.000872665, 0.0, 0.0, 0.0, 0.000872665, 0.0, 0.0, 0.0, 0.000872665)",-2.09643818825,9.811480515,0.174930565953,"(0.003, 0.0, 0.0, 0.0, 0.003, 0.0, 0.0, 0.0, 0.003)"
2022/01/11/19:05:36.435152,13341,1641924336,434797408,imu_iphone,0.106348138314,0.153517097112,-0.522711314088,0.831802534557,"(0.00872665, 0.0, 0.0, 0.0, 0.00872665, 0.0, 0.0, 0.0, 0.00872665)",-0.220755338669,-0.196445927024,-1.109385252,"(0.000872665, 0.0, 0.0, 0.0, 0.000872665, 0.0, 0.0, 0.0, 0.000872665)",-1.34477773905,10.085511446,0.242727277279,"(0.003, 0.0, 0.0, 0.0, 0.003, 0.0, 0.0, 0.0, 0.003)"
2022/01/11/19:05:36.464795,13342,1641924336,464518348,imu_iphone,0.105856206363,0.146934659427,-0.533324366666,0.826298849905,"(0.00872665, 0.0, 0.0, 0.0, 0.00872665, 0.0, 0.0, 0.0, 0.00872665)",-0.529732465744,-0.264412432909,-0.342317819595,"(0.000872665, 0.0, 0.0, 0.0, 0.000872665, 0.0, 0.0, 0.0, 0.000872665)",-0.998037046865,9.8260868597,0.0163838982582,"(0.003, 0.0, 0.0, 0.0, 0.003, 0.0, 0.0, 0.0, 0.003)"
2022/01/11/19:05:36.494731,13343,1641924336,494385155,imu_iphone,0.0959021592023,0.141608650472,-0.531438565442,0.829652226618,"(0.00872665, 0.0, 0.0, 0.0, 0.00872665, 0.0, 0.0, 0.0, 0.00872665)",-0.817031025887,-0.312517613173,0.631955623627,"(0.000872665, 0.0, 0.0, 0.0, 0.000872665, 0.0, 0.0, 0.0, 0.000872665)",-1.01201700859,9.37370883465,-0.516109752059,"(0.003, 0.0, 0.0, 0.0, 0.003, 0.0, 0.0, 0.0, 0.003)"
2022/01/11/19:05:36.524444,13344,1641924336,524048277,imu_iphone,0.0779363507296,0.136404266923,-0.518018848975,0.840818811223,"(0.00872665, 0.0, 0.0, 0.0, 0.00872665, 0.0, 0.0, 0.0, 0.00872665)",-1.06327915192,-0.340210109949,1.27054107189,"(0.000872665, 0.0, 0.0, 0.0, 0.000872665, 0.0, 0.0, 0.0, 0.000872665)",-1.84695693836,9.42926907778,-1.12863541245,"(0.003, 0.0, 0.0, 0.0, 0.003, 0.0, 0.0, 0.0, 0.003)"
2022/01/11/19:05:36.554609,13345,1641924336,554234880,imu_iphone,0.056917066424,0.127915565232,-0.501133727129,0.853968994317,"(0.00872665, 0.0, 0.0, 0.0, 0.00872665, 0.0, 0.0, 0.0, 0.00872665)",-1.30296754837,-0.299277544022,1.24372291565,"(0.000872665, 0.0, 0.0, 0.0, 0.000872665, 0.0, 0.0, 0.0, 0.000872665)",-1.13265383832,8.50296954632,-1.75409219027,"(0.003, 0.0, 0.0, 0.0, 0.003, 0.0, 0.0, 0.0, 0.003)"
2022/01/11/19:05:36.585289,13346,1641924336,584207184,imu_iphone,0.0373012402681,0.114593038768,-0.4881620521,0.864392771736,"(0.00872665, 0.0, 0.0, 0.0, 0.00872665, 0.0, 0.0, 0.0, 0.00872665)",-1.42942750454,-0.2608294487,0.937036216259,"(0.000872665, 0.0, 0.0, 0.0, 0.000872665, 0.0, 0.0, 0.0, 0.000872665)",-1.14556514829,6.50484614968,-2.00815663397,"(0.003, 0.0, 0.0, 0.0, 0.003, 0.0, 0.0, 0.0, 0.003)"
2022/01/11/19:05:36.613658,13347,1641924336,613407789,imu_iphone,0.020355555901,0.0985935431262,-0.479815129412,0.871574670459,"(0.00872665, 0.0, 0.0, 0.0, 0.00872665, 0.0, 0.0, 0.0, 0.00872665)",-1.43298578262,-0.198206871748,0.652454018593,"(0.000872665, 0.0, 0.0, 0.0, 0.000872665, 0.0, 0.0, 0.0, 0.000872665)",0.198214653768,4.20107358813,-1.99241943777,"(0.003, 0.0, 0.0, 0.0, 0.003, 0.0, 0.0, 0.0, 0.003)"
2022/01/11/19:05:36.643903,13348,1641924336,643654172,imu_iphone,0.00601342844367,0.0819120892529,-0.473968716688,0.876702859533,"(0.00872665, 0.0, 0.0, 0.0, 0.00872665, 0.0, 0.0, 0.0, 0.00872665)",-1.35291135311,-0.133026689291,0.657676577568,"(0.000872665, 0.0, 0.0, 0.0, 0.000872665, 0.0, 0.0, 0.0, 0.000872665)",0.21969757989,2.43980540246,-1.81664921165,"(0.003, 0.0, 0.0, 0.0, 0.003, 0.0, 0.0, 0.0, 0.003)"
2022/01/11/19:05:36.673436,13349,1641924336,673146131,imu_iphone,-0.00674751349118,0.0657051746091,-0.466156382995,0.882233261493,"(0.00872665, 0.0, 0.0, 0.0, 0.00872665, 0.0, 0.0, 0.0, 0.00872665)",-1.23500823975,-0.077509611845,0.858258783817,"(0.000872665, 0.0, 0.0, 0.0, 0.000872665, 0.0, 0.0, 0.0, 0.000872665)",0.218522143364,1.4637482585,-1.92452156961,"(0.003, 0.0, 0.0, 0.0, 0.003, 0.0, 0.0, 0.0, 0.003)"
2022/01/11/19:05:36.703722,13350,1641924336,703223427,imu_iphone,-0.0179604486912,0.05009325725,-0.455073393103,0.888862359846,"(0.00872665, 0.0, 0.0, 0.0, 0.00872665, 0.0, 0.0, 0.0, 0.00872665)",-1.10139095783,-0.0426234677434,1.22963500023,"(0.000872665, 0.0, 0.0, 0.0, 0.000872665, 0.0, 0.0, 0.0, 0.000872665)",-0.511275201067,0.411167653129,-2.09207704246,"(0.003, 0.0, 0.0, 0.0, 0.003, 0.0, 0.0, 0.0, 0.003)"
2022/01/11/19:05:36.733841,13351,1641924336,733055042,imu_iphone,-0.0280606483574,0.0349050089795,-0.43621658924,0.898726503244,"(0.00872665, 0.0, 0.0, 0.0, 0.00872665, 0.0, 0.0, 0.0, 0.00872665)",-0.980546474457,-0.0108452457935,1.8705714941,"(0.000872665, 0.0, 0.0, 0.0, 0.000872665, 0.0, 0.0, 0.0, 0.000872665)",-0.318806569576,0.20048487179,-2.53331670642,"(0.003, 0.0, 0.0, 0.0, 0.003, 0.0, 0.0, 0.0, 0.003)"
2022/01/11/19:05:36.762581,13352,1641924336,762382101,imu_iphone,-0.0364229273143,0.0192296657875,-0.409676683942,0.911300502005,"(0.00872665, 0.0, 0.0, 0.0, 0.00872665, 0.0, 0.0, 0.0, 0.00872665)",-0.911008238792,0.0147242536768,2.30388116837,"(0.000872665, 0.0, 0.0, 0.0, 0.000872665, 0.0, 0.0, 0.0, 0.000872665)",-0.832396902591,0.50461536862,-2.68636640668,"(0.003, 0.0, 0.0, 0.0, 0.003, 0.0, 0.0, 0.0, 0.003)"
2022/01/11/19:05:36.792767,13353,1641924336,792374308,imu_iphone,-0.0425510320632,0.00258754429481,-0.378729126892,0.924525263434,"(0.00872665, 0.0, 0.0, 0.0, 0.00872665, 0.0, 0.0, 0.0, 0.00872665)",-0.910454511642,0.0300737433136,2.39802479744,"(0.000872665, 0.0, 0.0, 0.0, 0.000872665, 0.0, 0.0, 0.0, 0.000872665)",-1.56039220825,0.817044380084,-2.96850625634,"(0.003, 0.0, 0.0, 0.0, 0.003, 0.0, 0.0, 0.0, 0.003)"
2022/01/11/19:05:36.822405,13354,1641924336,822045911,imu_iphone,-0.0465638281595,-0.0151421650782,-0.348377337261,0.936074652806,"(0.00872665, 0.0, 0.0, 0.0, 0.00872665, 0.0, 0.0, 0.0, 0.00872665)",-0.980524361134,0.0366100929677,2.14901638031,"(0.000872665, 0.0, 0.0, 0.0, 0.000872665, 0.0, 0.0, 0.0, 0.000872665)",-2.38998522475,1.07954569817,-2.75700311065,"(0.003, 0.0, 0.0, 0.0, 0.003, 0.0, 0.0, 0.0, 0.003)"
2022/01/11/19:05:36.852432,13355,1641924336,852007976,imu_iphone,-0.0490121642527,-0.0338020664633,-0.322486971567,0.944699624869,"(0.00872665, 0.0, 0.0, 0.0, 0.00872665, 0.0, 0.0, 0.0, 0.00872665)",-1.07785916328,0.0553243681788,1.68137454987,"(0.000872665, 0.0, 0.0, 0.0, 0.000872665, 0.0, 0.0, 0.0, 0.000872665)",-2.30160119802,0.523432585672,-2.59943702102,"(0.003, 0.0, 0.0, 0.0, 0.003, 0.0, 0.0, 0.0, 0.003)"
2022/01/11/19:05:36.881871,13356,1641924336,881572698,imu_iphone,-0.0503171451057,-0.0534699816971,-0.301181202111,0.950736046156,"(0.00872665, 0.0, 0.0, 0.0, 0.00872665, 0.0, 0.0, 0.0, 0.00872665)",-1.18827736378,0.0847914218903,1.53690516949,"(0.000872665, 0.0, 0.0, 0.0, 0.000872665, 0.0, 0.0, 0.0, 0.000872665)",-1.99393488988,0.25933629334,-2.54150339305,"(0.003, 0.0, 0.0, 0.0, 0.003, 0.0, 0.0, 0.0, 0.003)"
2022/01/11/19:05:36.911908,13357,1641924336,911558470,imu_iphone,-0.0498947995435,-0.0752972326995,-0.279836938055,0.95578874435,"(0.00872665, 0.0, 0.0, 0.0, 0.00872665, 0.0, 0.0, 0.0, 0.00872665)",-1.33796584606,0.1302973032,1.59287106991,"(0.000872665, 0.0, 0.0, 0.0, 0.000872665, 0.0, 0.0, 0.0, 0.000872665)",-2.37438295305,-0.0437246015668,-2.31560030937,"(0.003, 0.0, 0.0, 0.0, 0.003, 0.0, 0.0, 0.0, 0.003)"
2022/01/11/19:05:36.941592,13358,1641924336,941211780,imu_iphone,-0.0466185801138,-0.0996650584283,-0.255347724115,0.960568125593,"(0.00872665, 0.0, 0.0, 0.0, 0.00872665, 0.0, 0.0, 0.0, 0.00872665)",-1.47379672527,0.193727508187,1.77396857738,"(0.000872665, 0.0, 0.0, 0.0, 0.000872665, 0.0, 0.0, 0.0, 0.000872665)",-3.18915415496,-1.08890489772,-2.23991394997,"(0.003, 0.0, 0.0, 0.0, 0.003, 0.0, 0.0, 0.0, 0.003)"
2022/01/11/19:05:36.985218,13359,1641924336,984889073,imu_iphone,-0.0400935937597,-0.12568795693,-0.228773918715,0.964498592709,"(0.00872665, 0.0, 0.0, 0.0, 0.00872665, 0.0, 0.0, 0.0, 0.00872665)",-1.52948069572,0.227075845003,1.70593225956,"(0.000872665, 0.0, 0.0, 0.0, 0.000872665, 0.0, 0.0, 0.0, 0.000872665)",-4.25150114536,-2.49225054145,-2.48143494666,"(0.003, 0.0, 0.0, 0.0, 0.003, 0.0, 0.0, 0.0, 0.003)"
2022/01/11/19:05:37.004272,13360,1641924337,934108,imu_iphone,-0.0309911891532,-0.150948494077,-0.201645946969,0.967260570065,"(0.00872665, 0.0, 0.0, 0.0, 0.00872665, 0.0, 0.0, 0.0, 0.00872665)",-1.50262320042,0.249670833349,1.63000309467,"(0.000872665, 0.0, 0.0, 0.0, 0.000872665, 0.0, 0.0, 0.0, 0.000872665)",-3.80291767091,-3.53481961727,-2.50675046682,"(0.003, 0.0, 0.0, 0.0, 0.003, 0.0, 0.0, 0.0, 0.003)"
2022/01/11/19:05:37.037168,13361,1641924337,36757891,imu_iphone,-0.0189930623506,-0.17477157311,-0.173986472851,0.968928721878,"(0.00872665, 0.0, 0.0, 0.0, 0.00872665, 0.0, 0.0, 0.0, 0.00872665)",-1.40685033798,0.272470027208,1.59151554108,"(0.000872665, 0.0, 0.0, 0.0, 0.000872665, 0.0, 0.0, 0.0, 0.000872665)",-3.71699809939,-5.66003341556,-2.40622922838,"(0.003, 0.0, 0.0, 0.0, 0.003, 0.0, 0.0, 0.0, 0.003)"
2022/01/11/19:05:37.060624,13362,1641924337,60398329,imu_iphone,-0.0047204960919,-0.19520634091,-0.146485021774,0.969749627368,"(0.00872665, 0.0, 0.0, 0.0, 0.00872665, 0.0, 0.0, 0.0, 0.00872665)",-1.20896327496,0.287941485643,1.36729431152,"(0.000872665, 0.0, 0.0, 0.0, 0.000872665, 0.0, 0.0, 0.0, 0.000872665)",-3.04780794919,-7.41194634855,-1.82852022886,"(0.003, 0.0, 0.0, 0.0, 0.003, 0.0, 0.0, 0.0, 0.003)"
2022/01/11/19:05:37.091125,13363,1641924337,90642100,imu_iphone,0.010207179984,-0.211106017689,-0.121255270048,0.969859382724,"(0.00872665, 0.0, 0.0, 0.0, 0.00872665, 0.0, 0.0, 0.0, 0.00872665)",-0.921308398247,0.247979208827,1.31502604485,"(0.000872665, 0.0, 0.0, 0.0, 0.000872665, 0.0, 0.0, 0.0, 0.000872665)",-3.77690077722,-9.65325602889,-1.31875412107,"(0.003, 0.0, 0.0, 0.0, 0.003, 0.0, 0.0, 0.0, 0.003)"
2022/01/11/19:05:37.123403,13364,1641924337,121863250,imu_iphone,0.026024609165,-0.220903584133,-0.0958916714271,0.970221167356,"(0.00872665, 0.0, 0.0, 0.0, 0.00872665, 0.0, 0.0, 0.0, 0.00872665)",-0.561148285866,0.158524766564,1.25254559517,"(0.000872665, 0.0, 0.0, 0.0, 0.000872665, 0.0, 0.0, 0.0, 0.000872665)",-3.15229418457,-10.1372125268,-0.780458278656,"(0.003, 0.0, 0.0, 0.0, 0.003, 0.0, 0.0, 0.0, 0.003)"
2022/01/11/19:05:37.150419,13365,1641924337,150041713,imu_iphone,0.0395248067455,-0.225035222938,-0.0748978372787,0.970663305199,"(0.00872665, 0.0, 0.0, 0.0, 0.00872665, 0.0, 0.0, 0.0, 0.00872665)",-0.232449457049,0.0859762355685,0.951118171215,"(0.000872665, 0.0, 0.0, 0.0, 0.000872665, 0.0, 0.0, 0.0, 0.000872665)",-2.94898591161,-10.4580761468,-0.229825980663,"(0.003, 0.0, 0.0, 0.0, 0.003, 0.0, 0.0, 0.0, 0.003)"
2022/01/11/19:05:37.182159,13366,1641924337,181791595,imu_iphone,0.0481941492358,-0.224331825192,-0.0614509691933,0.97137857428,"(0.00872665, 0.0, 0.0, 0.0, 0.00872665, 0.0, 0.0, 0.0, 0.00872665)",0.116430357099,-0.00481877895072,0.531774401665,"(0.000872665, 0.0, 0.0, 0.0, 0.000872665, 0.0, 0.0, 0.0, 0.000872665)",-2.5035420996,-11.0965546739,-0.158910364509,"(0.003, 0.0, 0.0, 0.0, 0.003, 0.0, 0.0, 0.0, 0.003)"
2022/01/11/19:05:37.209399,13367,1641924337,208986792,imu_iphone,0.0505109905923,-0.219490048799,-0.0577109902869,0.972595599367,"(0.00872665, 0.0, 0.0, 0.0, 0.00872665, 0.0, 0.0, 0.0, 0.00872665)",0.458193153143,-0.0892065241933,0.0931261703372,"(0.000872665, 0.0, 0.0, 0.0, 0.000872665, 0.0, 0.0, 0.0, 0.000872665)",-2.2154579705,-11.2229901874,-0.327656915188,"(0.003, 0.0, 0.0, 0.0, 0.003, 0.0, 0.0, 0.0, 0.003)"
2022/01/11/19:05:37.239652,13368,1641924337,239207020,imu_iphone,0.0492457882334,-0.210430461339,-0.059004912187,0.974583138383,"(0.00872665, 0.0, 0.0, 0.0, 0.00872665, 0.0, 0.0, 0.0, 0.00872665)",0.757074892521,-0.187717869878,0.111393198371,"(0.000872665, 0.0, 0.0, 0.0, 0.000872665, 0.0, 0.0, 0.0, 0.000872665)",-2.20523411393,-10.3590044332,-0.940473766923,"(0.003, 0.0, 0.0, 0.0, 0.003, 0.0, 0.0, 0.0, 0.003)"
2022/01/11/19:05:37.273534,13369,1641924337,273179999,imu_iphone,0.0466987927376,-0.197552513452,-0.0614795956052,0.977247402918,"(0.00872665, 0.0, 0.0, 0.0, 0.00872665, 0.0, 0.0, 0.0, 0.00872665)",0.978806316853,-0.25345864892,-0.0881644710898,"(0.000872665, 0.0, 0.0, 0.0, 0.000872665, 0.0, 0.0, 0.0, 0.000872665)",-1.52855660409,-8.74738140643,-1.05293794334,"(0.003, 0.0, 0.0, 0.0, 0.003, 0.0, 0.0, 0.0, 0.003)"
2022/01/11/19:05:37.298971,13370,1641924337,298693601,imu_iphone,0.0407202837382,-0.182590635345,-0.0696598114476,0.979872455499,"(0.00872665, 0.0, 0.0, 0.0, 0.00872665, 0.0, 0.0, 0.0, 0.00872665)",1.12360191345,-0.304035782814,-0.426611959934,"(0.000872665, 0.0, 0.0, 0.0, 0.000872665, 0.0, 0.0, 0.0, 0.000872665)",-2.11076065063,-7.85147628665,-1.61367247581,"(0.003, 0.0, 0.0, 0.0, 0.003, 0.0, 0.0, 0.0, 0.003)"
2022/01/11/19:05:37.329000,13371,1641924337,328603233,imu_iphone,0.0319062070412,-0.166177035183,-0.0825916929716,0.982112925881,"(0.00872665, 0.0, 0.0, 0.0, 0.00872665, 0.0, 0.0, 0.0, 0.00872665)",1.21214461327,-0.392219364643,-0.568737983704,"(0.000872665, 0.0, 0.0, 0.0, 0.000872665, 0.0, 0.0, 0.0, 0.000872665)",-3.4991463393,-6.57944141865,-1.4904441601,"(0.003, 0.0, 0.0, 0.0, 0.003, 0.0, 0.0, 0.0, 0.003)"
2022/01/11/19:05:37.358680,13372,1641924337,358117335,imu_iphone,0.0221187565665,-0.148668175701,-0.0967001458194,0.983899189928,"(0.00872665, 0.0, 0.0, 0.0, 0.00872665, 0.0, 0.0, 0.0, 0.00872665)",1.22577464581,-0.446945995092,-0.657975077629,"(0.000872665, 0.0, 0.0, 0.0, 0.000872665, 0.0, 0.0, 0.0, 0.000872665)",-2.87459178686,-5.28582915545,-1.54330708265,"(0.003, 0.0, 0.0, 0.0, 0.003, 0.0, 0.0, 0.0, 0.003)"
2022/01/11/19:05:37.389451,13373,1641924337,388323895,imu_iphone,0.0121285172628,-0.13078234772,-0.111186893791,0.985081900779,"(0.00872665, 0.0, 0.0, 0.0, 0.00872665, 0.0, 0.0, 0.0, 0.00872665)",1.19070410728,-0.490581214428,-0.867157399654,"(0.000872665, 0.0, 0.0, 0.0, 0.000872665, 0.0, 0.0, 0.0, 0.000872665)",-3.22204240412,-3.84047726065,-1.55244277239,"(0.003, 0.0, 0.0, 0.0, 0.003, 0.0, 0.0, 0.0, 0.003)"
2022/01/11/19:05:37.419730,13374,1641924337,419039416,imu_iphone,0.000842295870206,-0.113164350495,-0.129642740656,0.985081661645,"(0.00872665, 0.0, 0.0, 0.0, 0.00872665, 0.0, 0.0, 0.0, 0.00872665)",1.12078905106,-0.514158546925,-1.24900174141,"(0.000872665, 0.0, 0.0, 0.0, 0.000872665, 0.0, 0.0, 0.0, 0.000872665)",-2.90556390345,-2.23456608653,-1.7908191365,"(0.003, 0.0, 0.0, 0.0, 0.003, 0.0, 0.0, 0.0, 0.003)"
2022/01/11/19:05:37.448069,13375,1641924337,447720864,imu_iphone,-0.0116172817551,-0.0959044817333,-0.154911557913,0.9831936627,"(0.00872665, 0.0, 0.0, 0.0, 0.00872665, 0.0, 0.0, 0.0, 0.00872665)",1.03777980804,-0.478649705648,-1.85364854336,"(0.000872665, 0.0, 0.0, 0.0, 0.000872665, 0.0, 0.0, 0.0, 0.000872665)",-2.02606563225,-1.30947897524,-2.34835348785,"(0.003, 0.0, 0.0, 0.0, 0.003, 0.0, 0.0, 0.0, 0.003)"
2022/01/11/19:05:37.477533,13376,1641924337,477292299,imu_iphone,-0.0235647018518,-0.0784354108024,-0.186170191672,0.979098182457,"(0.00872665, 0.0, 0.0, 0.0, 0.00872665, 0.0, 0.0, 0.0, 0.00872665)",0.988800764084,-0.413644343615,-2.06556534767,"(0.000872665, 0.0, 0.0, 0.0, 0.000872665, 0.0, 0.0, 0.0, 0.000872665)",-1.14913735852,-1.36648128793,-2.69816199481,"(0.003, 0.0, 0.0, 0.0, 0.003, 0.0, 0.0, 0.0, 0.003)"
2022/01/11/19:05:37.507702,13377,1641924337,507355055,imu_iphone,-0.0324232801172,-0.0604520370947,-0.216654778263,0.973835196105,"(0.00872665, 0.0, 0.0, 0.0, 0.00872665, 0.0, 0.0, 0.0, 0.00872665)",0.979311466217,-0.332120805979,-2.07059597969,"(0.000872665, 0.0, 0.0, 0.0, 0.000872665, 0.0, 0.0, 0.0, 0.000872665)",-1.10995575115,-0.960101554245,-3.00197513402,"(0.003, 0.0, 0.0, 0.0, 0.003, 0.0, 0.0, 0.0, 0.003)"
2022/01/11/19:05:37.539727,13378,1641924337,537200731,imu_iphone,-0.0381131418463,-0.0417600744209,-0.24754126004,0.967226348473,"(0.00872665, 0.0, 0.0, 0.0, 0.00872665, 0.0, 0.0, 0.0, 0.00872665)",1.00074362755,-0.252221673727,-2.2424633503,"(0.000872665, 0.0, 0.0, 0.0, 0.000872665, 0.0, 0.0, 0.0, 0.000872665)",-1.49854810864,-0.310274166316,-2.86488833249,"(0.003, 0.0, 0.0, 0.0, 0.003, 0.0, 0.0, 0.0, 0.003)"
2022/01/11/19:05:37.572198,13379,1641924337,571815524,imu_iphone,-0.0403864676011,-0.0223297906963,-0.278858682329,0.959222679555,"(0.00872665, 0.0, 0.0, 0.0, 0.00872665, 0.0, 0.0, 0.0, 0.00872665)",1.05441534519,-0.179567635059,-2.27401041985,"(0.000872665, 0.0, 0.0, 0.0, 0.000872665, 0.0, 0.0, 0.0, 0.000872665)",-1.9207293579,-0.303211168349,-2.8879655385,"(0.003, 0.0, 0.0, 0.0, 0.003, 0.0, 0.0, 0.0, 0.003)"
2022/01/11/19:05:37.597118,13380,1641924337,596700857,imu_iphone,-0.038830765031,-0.001914883591,-0.309940720829,0.949960659438,"(0.00872665, 0.0, 0.0, 0.0, 0.00872665, 0.0, 0.0, 0.0, 0.00872665)",1.16910541058,-0.114777773619,-2.37467312813,"(0.000872665, 0.0, 0.0, 0.0, 0.000872665, 0.0, 0.0, 0.0, 0.000872665)",-2.63390021771,-0.3312478365,-2.7697073561,"(0.003, 0.0, 0.0, 0.0, 0.003, 0.0, 0.0, 0.0, 0.003)"
2022/01/11/19:05:37.627012,13381,1641924337,626582256,imu_iphone,-0.0329184491912,0.0195517044738,-0.34344014245,0.938393827297,"(0.00872665, 0.0, 0.0, 0.0, 0.00872665, 0.0, 0.0, 0.0, 0.00872665)",1.25524508953,-0.0170851591974,-2.68354129791,"(0.000872665, 0.0, 0.0, 0.0, 0.000872665, 0.0, 0.0, 0.0, 0.000872665)",-2.28634552002,1.21965865307,-2.53933992326,"(0.003, 0.0, 0.0, 0.0, 0.003, 0.0, 0.0, 0.0, 0.003)"
2022/01/11/19:05:37.659111,13382,1641924337,656199750,imu_iphone,-0.0219939166669,0.0404687295118,-0.379085509693,0.924214653586,"(0.00872665, 0.0, 0.0, 0.0, 0.00872665, 0.0, 0.0, 0.0, 0.00872665)",1.29299151897,0.0851470604539,-2.70470499992,"(0.000872665, 0.0, 0.0, 0.0, 0.000872665, 0.0, 0.0, 0.0, 0.000872665)",-2.75934667468,2.74042683899,-2.23411351204,"(0.003, 0.0, 0.0, 0.0, 0.003, 0.0, 0.0, 0.0, 0.003)"
2022/01/11/19:05:37.686658,13383,1641924337,685902926,imu_iphone,-0.00719137883474,0.0591111940319,-0.411802591343,0.909325451405,"(0.00872665, 0.0, 0.0, 0.0, 0.00872665, 0.0, 0.0, 0.0, 0.00872665)",1.29083168507,0.154126271605,-2.35509729385,"(0.000872665, 0.0, 0.0, 0.0, 0.000872665, 0.0, 0.0, 0.0, 0.000872665)",-3.54722009987,3.57114339799,-2.08782260835,"(0.003, 0.0, 0.0, 0.0, 0.003, 0.0, 0.0, 0.0, 0.003)"
2022/01/11/19:05:37.716202,13384,1641924337,715762622,imu_iphone,0.00937473999849,0.0754155572997,-0.43944109942,0.89505090811,"(0.00872665, 0.0, 0.0, 0.0, 0.00872665, 0.0, 0.0, 0.0, 0.00872665)",1.26851415634,0.151729509234,-1.97170448303,"(0.000872665, 0.0, 0.0, 0.0, 0.000872665, 0.0, 0.0, 0.0, 0.000872665)",-3.71078221679,5.19276604056,-2.16255119383,"(0.003, 0.0, 0.0, 0.0, 0.003, 0.0, 0.0, 0.0, 0.003)"
2022/01/11/19:05:37.745911,13385,1641924337,745616915,imu_iphone,0.0259823832849,0.0893390942874,-0.461858358901,0.882060257751,"(0.00872665, 0.0, 0.0, 0.0, 0.00872665, 0.0, 0.0, 0.0, 0.00872665)",1.16991984844,0.141341358423,-1.61658942699,"(0.000872665, 0.0, 0.0, 0.0, 0.000872665, 0.0, 0.0, 0.0, 0.000872665)",-3.19265400589,6.76917596519,-1.70998898149,"(0.003, 0.0, 0.0, 0.0, 0.003, 0.0, 0.0, 0.0, 0.003)"
2022/01/11/19:05:37.775811,13386,1641924337,775500467,imu_iphone,0.0415764162717,0.100615715877,-0.480200287147,0.870376679118,"(0.00872665, 0.0, 0.0, 0.0, 0.00872665, 0.0, 0.0, 0.0, 0.00872665)",1.02647256851,0.124174661934,-1.28966760635,"(0.000872665, 0.0, 0.0, 0.0, 0.000872665, 0.0, 0.0, 0.0, 0.000872665)",-2.52364541173,7.65826907873,-1.37496282041,"(0.003, 0.0, 0.0, 0.0, 0.003, 0.0, 0.0, 0.0, 0.003)"
2022/01/11/19:05:37.805525,13387,1641924337,805201004,imu_iphone,0.0553789538463,0.109191033418,-0.495393441715,0.859997574181,"(0.00872665, 0.0, 0.0, 0.0, 0.00872665, 0.0, 0.0, 0.0, 0.00872665)",0.83467489481,0.0838442072272,-1.10424816608,"(0.000872665, 0.0, 0.0, 0.0, 0.000872665, 0.0, 0.0, 0.0, 0.000872665)",-2.89848146349,8.32988728523,-0.87249111414,"(0.003, 0.0, 0.0, 0.0, 0.003, 0.0, 0.0, 0.0, 0.003)"
2022/01/11/19:05:37.835396,13388,1641924337,835017490,imu_iphone,0.0670084245609,0.115042693073,-0.509769748353,0.849946970976,"(0.00872665, 0.0, 0.0, 0.0, 0.00872665, 0.0, 0.0, 0.0, 0.00872665)",0.610679924488,0.0048349974677,-1.11465203762,"(0.000872665, 0.0, 0.0, 0.0, 0.000872665, 0.0, 0.0, 0.0, 0.000872665)",-2.62378453463,9.64571896791,-0.581726621389,"(0.003, 0.0, 0.0, 0.0, 0.003, 0.0, 0.0, 0.0, 0.003)"
2022/01/11/19:05:37.865297,13389,1641924337,864888785,imu_iphone,0.0754837535211,0.118628334038,-0.522224355686,0.841136875691,"(0.00872665, 0.0, 0.0, 0.0, 0.00872665, 0.0, 0.0, 0.0, 0.00872665)",0.390789240599,-0.0827342048287,-0.739895701408,"(0.000872665, 0.0, 0.0, 0.0, 0.000872665, 0.0, 0.0, 0.0, 0.000872665)",-1.67891731605,9.75154655457,-0.143604692817,"(0.003, 0.0, 0.0, 0.0, 0.003, 0.0, 0.0, 0.0, 0.003)"
2022/01/11/19:05:37.894759,13390,1641924337,894476272,imu_iphone,0.078930414012,0.120767504064,-0.52819584976,0.836776161229,"(0.00872665, 0.0, 0.0, 0.0, 0.00872665, 0.0, 0.0, 0.0, 0.00872665)",0.106902964413,-0.0960970744491,-0.221352562308,"(0.000872665, 0.0, 0.0, 0.0, 0.000872665, 0.0, 0.0, 0.0, 0.000872665)",-0.775535507798,9.75985661745,-0.0651496767998,"(0.003, 0.0, 0.0, 0.0, 0.003, 0.0, 0.0, 0.0, 0.003)"
2022/01/11/19:05:37.927107,13391,1641924337,926355444,imu_iphone,0.0772854516032,0.121419579563,-0.527915519407,0.837012215585,"(0.00872665, 0.0, 0.0, 0.0, 0.00872665, 0.0, 0.0, 0.0, 0.00872665)",-0.159153074026,-0.135420739651,0.24090886116,"(0.000872665, 0.0, 0.0, 0.0, 0.000872665, 0.0, 0.0, 0.0, 0.000872665)",-0.73606139347,10.0959896564,0.030348803401,"(0.003, 0.0, 0.0, 0.0, 0.003, 0.0, 0.0, 0.0, 0.003)"
2022/01/11/19:05:37.955160,13392,1641924337,954194851,imu_iphone,0.0704315374181,0.120569189889,-0.521891794783,0.84150545068,"(0.00872665, 0.0, 0.0, 0.0, 0.00872665, 0.0, 0.0, 0.0, 0.00872665)",-0.425343126059,-0.194096893072,0.627115786076,"(0.000872665, 0.0, 0.0, 0.0, 0.000872665, 0.0, 0.0, 0.0, 0.000872665)",-1.61077971205,10.25942752,-0.144985220432,"(0.003, 0.0, 0.0, 0.0, 0.003, 0.0, 0.0, 0.0, 0.003)"
2022/01/11/19:05:37.985144,13393,1641924337,984865887,imu_iphone,0.0592781367242,0.117829684193,-0.511729482917,0.848961250201,"(0.00872665, 0.0, 0.0, 0.0, 0.00872665, 0.0, 0.0, 0.0, 0.00872665)",-0.630235254765,-0.244256302714,0.888226389885,"(0.000872665, 0.0, 0.0, 0.0, 0.000872665, 0.0, 0.0, 0.0, 0.000872665)",-0.83315864861,9.55425506651,-0.331464037299,"(0.003, 0.0, 0.0, 0.0, 0.003, 0.0, 0.0, 0.0, 0.003)"
2022/01/11/19:05:38.014749,13394,1641924338,13962190,imu_iphone,0.0455585114754,0.112540409155,-0.499383986499,0.857831400899,"(0.00872665, 0.0, 0.0, 0.0, 0.00872665, 0.0, 0.0, 0.0, 0.00872665)",-0.86728978157,-0.23720164597,1.05689966679,"(0.000872665, 0.0, 0.0, 0.0, 0.000872665, 0.0, 0.0, 0.0, 0.000872665)",-0.344304120876,8.82157906473,-0.703106047511,"(0.003, 0.0, 0.0, 0.0, 0.003, 0.0, 0.0, 0.0, 0.003)"
2022/01/11/19:05:38.047069,13395,1641924338,46756710,imu_iphone,0.0295134204444,0.104035702759,-0.484236909066,0.868228164979,"(0.00872665, 0.0, 0.0, 0.0, 0.00872665, 0.0, 0.0, 0.0, 0.00872665)",-1.03662884235,-0.261116921902,1.40060687065,"(0.000872665, 0.0, 0.0, 0.0, 0.000872665, 0.0, 0.0, 0.0, 0.000872665)",-1.88345920533,7.61893368959,-0.860083907247,"(0.003, 0.0, 0.0, 0.0, 0.003, 0.0, 0.0, 0.0, 0.003)"
2022/01/11/19:05:38.073645,13396,1641924338,73279248,imu_iphone,0.0112737019666,0.0935527814502,-0.464362857672,0.880617917795,"(0.00872665, 0.0, 0.0, 0.0, 0.00872665, 0.0, 0.0, 0.0, 0.00872665)",-1.10986435413,-0.303251683712,1.76107144356,"(0.000872665, 0.0, 0.0, 0.0, 0.000872665, 0.0, 0.0, 0.0, 0.000872665)",-2.59368277609,6.6675010711,-1.42830229104,"(0.003, 0.0, 0.0, 0.0, 0.003, 0.0, 0.0, 0.0, 0.003)"
2022/01/11/19:05:38.103961,13397,1641924338,103557433,imu_iphone,-0.00765589417074,0.0805898261207,-0.440778288788,0.893958146304,"(0.00872665, 0.0, 0.0, 0.0, 0.00872665, 0.0, 0.0, 0.0, 0.00872665)",-1.16408276558,-0.295406997204,2.05154371262,"(0.000872665, 0.0, 0.0, 0.0, 0.000872665, 0.0, 0.0, 0.0, 0.000872665)",-1.71512853786,4.66274839371,-1.49628202021,"(0.003, 0.0, 0.0, 0.0, 0.003, 0.0, 0.0, 0.0, 0.003)"
2022/01/11/19:05:38.133495,13398,1641924338,133149657,imu_iphone,-0.0255251214319,0.0646468881102,-0.414666612317,0.907315187056,"(0.00872665, 0.0, 0.0, 0.0, 0.00872665, 0.0, 0.0, 0.0, 0.00872665)",-1.24514222145,-0.226186275482,2.09338092804,"(0.000872665, 0.0, 0.0, 0.0, 0.000872665, 0.0, 0.0, 0.0, 0.000872665)",-3.56825399637,3.14461854458,-1.77278983176,"(0.003, 0.0, 0.0, 0.0, 0.003, 0.0, 0.0, 0.0, 0.003)"
2022/01/11/19:05:38.162564,13399,1641924338,162269636,imu_iphone,-0.0411264025923,0.0466989541722,-0.390043154381,0.9186915502,"(0.00872665, 0.0, 0.0, 0.0, 0.00872665, 0.0, 0.0, 0.0, 0.00872665)",-1.13310956955,-0.329778015614,2.05997395515,"(0.000872665, 0.0, 0.0, 0.0, 0.000872665, 0.0, 0.0, 0.0, 0.000872665)",-4.31063871503,0.656640417427,-2.35408434391,"(0.003, 0.0, 0.0, 0.0, 0.003, 0.0, 0.0, 0.0, 0.003)"
2022/01/11/19:05:38.192323,13400,1641924338,191983487,imu_iphone,-0.0557632009494,0.0292532474818,-0.360799361713,0.930515197898,"(0.00872665, 0.0, 0.0, 0.0, 0.00872665, 0.0, 0.0, 0.0, 0.00872665)",-1.00493335724,-0.346996515989,2.65510320663,"(0.000872665, 0.0, 0.0, 0.0, 0.000872665, 0.0, 0.0, 0.0, 0.000872665)",-2.08119215816,-1.03498136334,-2.24169910491,"(0.003, 0.0, 0.0, 0.0, 0.003, 0.0, 0.0, 0.0, 0.003)"
2022/01/11/19:05:38.221972,13401,1641924338,221608687,imu_iphone,-0.0674997096318,0.00933943063259,-0.321190613905,0.94455976718,"(0.00872665, 0.0, 0.0, 0.0, 0.00872665, 0.0, 0.0, 0.0, 0.00872665)",-0.89549189806,-0.261118322611,3.48165369034,"(0.000872665, 0.0, 0.0, 0.0, 0.000872665, 0.0, 0.0, 0.0, 0.000872665)",-0.527801990658,-1.93134468555,-2.37131258011,"(0.003, 0.0, 0.0, 0.0, 0.003, 0.0, 0.0, 0.0, 0.003)"
2022/01/11/19:05:38.265862,13402,1641924338,265073144,imu_iphone,-0.0736433102182,-0.0135746344792,-0.269993465477,0.959945790531,"(0.00872665, 0.0, 0.0, 0.0, 0.00872665, 0.0, 0.0, 0.0, 0.00872665)",-0.767248570919,-0.131473392248,4.11421442032,"(0.000872665, 0.0, 0.0, 0.0, 0.000872665, 0.0, 0.0, 0.0, 0.000872665)",0.788045187145,-2.1056893605,-2.22467376709,"(0.003, 0.0, 0.0, 0.0, 0.003, 0.0, 0.0, 0.0, 0.003)"
2022/01/11/19:05:38.282376,13403,1641924338,282014843,imu_iphone,-0.0725413884094,-0.0363775905394,-0.213856067782,0.973488572171,"(0.00872665, 0.0, 0.0, 0.0, 0.00872665, 0.0, 0.0, 0.0, 0.00872665)",-0.634363234043,0.0564692206681,3.82826733589,"(0.000872665, 0.0, 0.0, 0.0, 0.000872665, 0.0, 0.0, 0.0, 0.000872665)",1.27360908464,-1.03211111136,-2.05869645774,"(0.003, 0.0, 0.0, 0.0, 0.003, 0.0, 0.0, 0.0, 0.003)"
2022/01/11/19:05:38.317795,13404,1641924338,316426938,imu_iphone,-0.0634152722874,-0.0584274717389,-0.164741866291,0.982560355031,"(0.00872665, 0.0, 0.0, 0.0, 0.00872665, 0.0, 0.0, 0.0, 0.00872665)",-0.71277487278,0.394184857607,3.11351037025,"(0.000872665, 0.0, 0.0, 0.0, 0.000872665, 0.0, 0.0, 0.0, 0.000872665)",1.55442439377,-1.33417220548,-2.02522173285,"(0.003, 0.0, 0.0, 0.0, 0.003, 0.0, 0.0, 0.0, 0.003)"
2022/01/11/19:05:38.341736,13405,1641924338,341462415,imu_iphone,-0.0492407062989,-0.0770470790972,-0.124638248317,0.987979963108,"(0.00872665, 0.0, 0.0, 0.0, 0.00872665, 0.0, 0.0, 0.0, 0.00872665)",-0.714475810528,0.61143219471,2.41138577461,"(0.000872665, 0.0, 0.0, 0.0, 0.000872665, 0.0, 0.0, 0.0, 0.000872665)",1.22277880043,-1.73021479279,-1.93261294663,"(0.003, 0.0, 0.0, 0.0, 0.003, 0.0, 0.0, 0.0, 0.003)"
2022/01/11/19:05:38.372711,13406,1641924338,371869119,imu_iphone,-0.031666071862,-0.0926424281678,-0.0910552099292,0.991021487729,"(0.00872665, 0.0, 0.0, 0.0, 0.00872665, 0.0, 0.0, 0.0, 0.00872665)",-0.706904530525,0.778785169125,2.06378936768,"(0.000872665, 0.0, 0.0, 0.0, 0.000872665, 0.0, 0.0, 0.0, 0.000872665)",0.603784292266,-2.31654229581,-1.79287735641,"(0.003, 0.0, 0.0, 0.0, 0.003, 0.0, 0.0, 0.0, 0.003)"
2022/01/11/19:05:38.401561,13407,1641924338,401254879,imu_iphone,-0.0115324382684,-0.10602835162,-0.0605703526483,0.992449607739,"(0.00872665, 0.0, 0.0, 0.0, 0.00872665, 0.0, 0.0, 0.0, 0.00872665)",-0.726274967194,0.877701461315,1.78080606461,"(0.000872665, 0.0, 0.0, 0.0, 0.000872665, 0.0, 0.0, 0.0, 0.000872665)",-0.937441035435,-2.10012880459,-1.65420186639,"(0.003, 0.0, 0.0, 0.0, 0.003, 0.0, 0.0, 0.0, 0.003)"
2022/01/11/19:05:38.431401,13408,1641924338,431144092,imu_iphone,0.00929676337518,-0.117793802234,-0.0343044117239,0.992401832768,"(0.00872665, 0.0, 0.0, 0.0, 0.00872665, 0.0, 0.0, 0.0, 0.00872665)",-0.766962587833,0.915244579315,1.36271691322,"(0.000872665, 0.0, 0.0, 0.0, 0.000872665, 0.0, 0.0, 0.0, 0.000872665)",-2.03515761405,-2.06186564863,-1.57427627563,"(0.003, 0.0, 0.0, 0.0, 0.003, 0.0, 0.0, 0.0, 0.003)"
2022/01/11/19:05:38.461322,13409,1641924338,460787411,imu_iphone,0.0290304786363,-0.128796940099,-0.0134631288319,0.991154540772,"(0.00872665, 0.0, 0.0, 0.0, 0.00872665, 0.0, 0.0, 0.0, 0.00872665)",-0.813942849636,0.877771854401,0.962516129017,"(0.000872665, 0.0, 0.0, 0.0, 0.000872665, 0.0, 0.0, 0.0, 0.000872665)",-3.41330804408,-2.27304076552,-1.37081480563,"(0.003, 0.0, 0.0, 0.0, 0.003, 0.0, 0.0, 0.0, 0.003)"
2022/01/11/19:05:38.490859,13410,1641924338,490454755,imu_iphone,0.0461340931764,-0.139985547319,0.00150272285173,0.989077061615,"(0.00872665, 0.0, 0.0, 0.0, 0.00872665, 0.0, 0.0, 0.0, 0.00872665)",-0.87455946207,0.790920376778,0.526900231838,"(0.000872665, 0.0, 0.0, 0.0, 0.000872665, 0.0, 0.0, 0.0, 0.000872665)",-4.59683126986,-2.8566379112,-1.45294596612,"(0.003, 0.0, 0.0, 0.0, 0.003, 0.0, 0.0, 0.0, 0.003)"
2022/01/11/19:05:38.520546,13411,1641924338,520176955,imu_iphone,0.0587888539563,-0.151541634245,0.0100325589412,0.986650065374,"(0.00872665, 0.0, 0.0, 0.0, 0.00872665, 0.0, 0.0, 0.0, 0.00872665)",-0.84353852272,0.601627349854,0.116225250065,"(0.000872665, 0.0, 0.0, 0.0, 0.000872665, 0.0, 0.0, 0.0, 0.000872665)",-4.79833655387,-3.60540311158,-1.08644833624,"(0.003, 0.0, 0.0, 0.0, 0.003, 0.0, 0.0, 0.0, 0.003)"
2022/01/11/19:05:38.550478,13412,1641924338,550130339,imu_iphone,0.0669467052053,-0.163231305389,0.0135951155586,0.984219920768,"(0.00872665, 0.0, 0.0, 0.0, 0.00872665, 0.0, 0.0, 0.0, 0.00872665)",-0.761183142662,0.412885904312,-0.135348051786,"(0.000872665, 0.0, 0.0, 0.0, 0.000872665, 0.0, 0.0, 0.0, 0.000872665)",-5.05566228211,-5.28756460905,-1.10077927709,"(0.003, 0.0, 0.0, 0.0, 0.003, 0.0, 0.0, 0.0, 0.003)"
2022/01/11/19:05:38.580775,13413,1641924338,580402616,imu_iphone,0.0700888677377,-0.17398916854,0.0120443181303,0.982176284712,"(0.00872665, 0.0, 0.0, 0.0, 0.00872665, 0.0, 0.0, 0.0, 0.00872665)",-0.616967618465,0.243907570839,-0.424889296293,"(0.000872665, 0.0, 0.0, 0.0, 0.000872665, 0.0, 0.0, 0.0, 0.000872665)",-4.6351527518,-6.17574965,-0.535844689608,"(0.003, 0.0, 0.0, 0.0, 0.003, 0.0, 0.0, 0.0, 0.003)"
2022/01/11/19:05:38.610106,13414,1641924338,609783941,imu_iphone,0.069267428433,-0.182860127669,0.00696800593948,0.980671017192,"(0.00872665, 0.0, 0.0, 0.0, 0.00872665, 0.0, 0.0, 0.0, 0.00872665)",-0.401452541351,0.0803017020226,-0.322738558054,"(0.000872665, 0.0, 0.0, 0.0, 0.000872665, 0.0, 0.0, 0.0, 0.000872665)",-4.63519017398,-7.76657354593,-0.375366101861,"(0.003, 0.0, 0.0, 0.0, 0.003, 0.0, 0.0, 0.0, 0.003)"
2022/01/11/19:05:38.641024,13415,1641924338,640643380,imu_iphone,0.0683616806395,-0.186997879882,0.00566952268963,0.979962412571,"(0.00872665, 0.0, 0.0, 0.0, 0.00872665, 0.0, 0.0, 0.0, 0.00872665)",-0.105588383973,-0.0716226398945,0.0784403309226,"(0.000872665, 0.0, 0.0, 0.0, 0.000872665, 0.0, 0.0, 0.0, 0.000872665)",-4.15398186743,-8.83385880232,-0.0893477940559,"(0.003, 0.0, 0.0, 0.0, 0.003, 0.0, 0.0, 0.0, 0.003)"
2022/01/11/19:05:38.669479,13416,1641924338,669252357,imu_iphone,0.0682486672279,-0.185686496023,0.00854662763526,0.980198755239,"(0.00872665, 0.0, 0.0, 0.0, 0.00872665, 0.0, 0.0, 0.0, 0.00872665)",0.203413590789,-0.172971472144,0.220704898238,"(0.000872665, 0.0, 0.0, 0.0, 0.000872665, 0.0, 0.0, 0.0, 0.000872665)",-3.85019591779,-9.43964379251,-0.179748086929,"(0.003, 0.0, 0.0, 0.0, 0.003, 0.0, 0.0, 0.0, 0.003)"
2022/01/11/19:05:38.699179,13417,1641924338,698872492,imu_iphone,0.0649935050344,-0.180281937539,0.00754056778768,0.981436399946,"(0.00872665, 0.0, 0.0, 0.0, 0.00872665, 0.0, 0.0, 0.0, 0.00872665)",0.52684867382,-0.277919530869,-0.171412453055,"(0.000872665, 0.0, 0.0, 0.0, 0.000872665, 0.0, 0.0, 0.0, 0.000872665)",-4.20902346253,-9.12195462584,-0.333314096332,"(0.003, 0.0, 0.0, 0.0, 0.003, 0.0, 0.0, 0.0, 0.003)"
2022/01/11/19:05:38.729040,13418,1641924338,728728475,imu_iphone,0.056432298575,-0.171848636685,-0.00223139713271,0.983503158416,"(0.00872665, 0.0, 0.0, 0.0, 0.00872665, 0.0, 0.0, 0.0, 0.00872665)",0.800955951214,-0.345186471939,-0.642637073994,"(0.000872665, 0.0, 0.0, 0.0, 0.000872665, 0.0, 0.0, 0.0, 0.000872665)",-4.10774822563,-8.16543785334,-0.753416660428,"(0.003, 0.0, 0.0, 0.0, 0.003, 0.0, 0.0, 0.0, 0.003)"
2022/01/11/19:05:38.907977,13419,1641924338,907597185,imu_iphone,-0.00595784171809,-0.0770301628592,-0.116058751339,0.990232914202,"(0.00872665, 0.0, 0.0, 0.0, 0.00872665, 0.0, 0.0, 0.0, 0.00872665)",1.07282960415,-0.323579162359,-1.39814519882,"(0.000872665, 0.0, 0.0, 0.0, 0.000872665, 0.0, 0.0, 0.0, 0.000872665)",-1.9237262021,-1.32587003633,-1.79138280809,"(0.003, 0.0, 0.0, 0.0, 0.003, 0.0, 0.0, 0.0, 0.003)"
2022/01/11/19:05:38.938090,13420,1641924338,937661465,imu_iphone,-0.0140619216202,-0.0603347329726,-0.142000405811,0.987926043339,"(0.00872665, 0.0, 0.0, 0.0, 0.00872665, 0.0, 0.0, 0.0, 0.00872665)",0.982851803303,-0.321791231632,-2.08563804626,"(0.000872665, 0.0, 0.0, 0.0, 0.000872665, 0.0, 0.0, 0.0, 0.000872665)",-2.12305003613,0.35634379372,-1.94611124396,"(0.003, 0.0, 0.0, 0.0, 0.003, 0.0, 0.0, 0.0, 0.003)"
2022/01/11/19:05:38.967725,13421,1641924338,967180113,imu_iphone,-0.0219698662741,-0.0439046178583,-0.17678404212,0.983024471699,"(0.00872665, 0.0, 0.0, 0.0, 0.00872665, 0.0, 0.0, 0.0, 0.00872665)",0.898897171021,-0.316736847162,-2.48101568222,"(0.000872665, 0.0, 0.0, 0.0, 0.000872665, 0.0, 0.0, 0.0, 0.000872665)",-2.02507657573,0.901268185973,-1.97019124746,"(0.003, 0.0, 0.0, 0.0, 0.003, 0.0, 0.0, 0.0, 0.003)"
2022/01/11/19:05:38.997437,13422,1641924338,997143769,imu_iphone,-0.0279720773658,-0.027659809896,-0.212070366805,0.976462317413,"(0.00872665, 0.0, 0.0, 0.0, 0.00872665, 0.0, 0.0, 0.0, 0.00872665)",0.835168659687,-0.321254134178,-2.3525595665,"(0.000872665, 0.0, 0.0, 0.0, 0.000872665, 0.0, 0.0, 0.0, 0.000872665)",-2.1680598557,1.03006524369,-2.07735492289,"(0.003, 0.0, 0.0, 0.0, 0.003, 0.0, 0.0, 0.0, 0.003)"
2022/01/11/19:05:39.026884,13423,1641924339,26581441,imu_iphone,-0.0319103646574,-0.0115331376574,-0.243671585407,0.969264088795,"(0.00872665, 0.0, 0.0, 0.0, 0.00872665, 0.0, 0.0, 0.0, 0.00872665)",0.82643699646,-0.330053806305,-2.14376139641,"(0.000872665, 0.0, 0.0, 0.0, 0.000872665, 0.0, 0.0, 0.0, 0.000872665)",-1.82670437604,1.15733647048,-2.32839284778,"(0.003, 0.0, 0.0, 0.0, 0.003, 0.0, 0.0, 0.0, 0.003)"
2022/01/11/19:05:39.057233,13424,1641924339,56875295,imu_iphone,-0.0336408331837,0.00470099701576,-0.272777182691,0.961477406689,"(0.00872665, 0.0, 0.0, 0.0, 0.00872665, 0.0, 0.0, 0.0, 0.00872665)",0.841300487518,-0.304338037968,-2.10003900528,"(0.000872665, 0.0, 0.0, 0.0, 0.000872665, 0.0, 0.0, 0.0, 0.000872665)",-1.23259919912,1.55147213459,-2.14866639555,"(0.003, 0.0, 0.0, 0.0, 0.003, 0.0, 0.0, 0.0, 0.003)"
2022/01/11/19:05:39.086923,13425,1641924339,86646288,imu_iphone,-0.0327189267889,0.0211915457257,-0.301981342877,0.952516487402,"(0.00872665, 0.0, 0.0, 0.0, 0.00872665, 0.0, 0.0, 0.0, 0.00872665)",0.865759074688,-0.245036095381,-2.21175694466,"(0.000872665, 0.0, 0.0, 0.0, 0.000872665, 0.0, 0.0, 0.0, 0.000872665)",-1.23138619423,1.98661914602,-1.91379660666,"(0.003, 0.0, 0.0, 0.0, 0.003, 0.0, 0.0, 0.0, 0.003)"
2022/01/11/19:05:39.116760,13426,1641924339,116425112,imu_iphone,-0.0285798264269,0.0378763025982,-0.332735343227,0.941825764455,"(0.00872665, 0.0, 0.0, 0.0, 0.00872665, 0.0, 0.0, 0.0, 0.00872665)",0.910314321518,-0.187102898955,-2.40765738487,"(0.000872665, 0.0, 0.0, 0.0, 0.000872665, 0.0, 0.0, 0.0, 0.000872665)",-1.87051580876,2.64339551121,-1.57982937634,"(0.003, 0.0, 0.0, 0.0, 0.003, 0.0, 0.0, 0.0, 0.003)"
2022/01/11/19:05:39.146363,13427,1641924339,145979573,imu_iphone,-0.0210395971564,0.0541419831094,-0.364440697851,0.929413233587,"(0.00872665, 0.0, 0.0, 0.0, 0.00872665, 0.0, 0.0, 0.0, 0.00872665)",0.928799390793,-0.107966586947,-2.31252145767,"(0.000872665, 0.0, 0.0, 0.0, 0.000872665, 0.0, 0.0, 0.0, 0.000872665)",-1.06499110132,3.59860046089,-1.26774944365,"(0.003, 0.0, 0.0, 0.0, 0.003, 0.0, 0.0, 0.0, 0.003)"
2022/01/11/19:05:39.177624,13428,1641924339,177293675,imu_iphone,-0.0111709543839,0.068758353783,-0.391046076227,0.917731150627,"(0.00872665, 0.0, 0.0, 0.0, 0.00872665, 0.0, 0.0, 0.0, 0.00872665)",0.922374248505,-0.018581494689,-1.78306663036,"(0.000872665, 0.0, 0.0, 0.0, 0.000872665, 0.0, 0.0, 0.0, 0.000872665)",-0.94618817769,4.32559881628,-0.889304198027,"(0.003, 0.0, 0.0, 0.0, 0.003, 0.0, 0.0, 0.0, 0.003)"
2022/01/11/19:05:39.205991,13429,1641924339,205609333,imu_iphone,-0.000421757950395,0.0813751665111,-0.411096942093,0.90795220612,"(0.00872665, 0.0, 0.0, 0.0, 0.00872665, 0.0, 0.0, 0.0, 0.00872665)",0.877393782139,0.0472279973328,-1.40328538418,"(0.000872665, 0.0, 0.0, 0.0, 0.000872665, 0.0, 0.0, 0.0, 0.000872665)",-1.03705054678,5.16253885925,-0.867740836143,"(0.003, 0.0, 0.0, 0.0, 0.003, 0.0, 0.0, 0.0, 0.003)"
2022/01/11/19:05:39.235923,13430,1641924339,235612545,imu_iphone,0.0106173146781,0.0920280534228,-0.427098684087,0.899446954558,"(0.00872665, 0.0, 0.0, 0.0, 0.00872665, 0.0, 0.0, 0.0, 0.00872665)",0.798829972744,0.0881195664406,-1.17607963085,"(0.000872665, 0.0, 0.0, 0.0, 0.000872665, 0.0, 0.0, 0.0, 0.000872665)",-1.21935072407,6.2144412607,-0.572985033989,"(0.003, 0.0, 0.0, 0.0, 0.003, 0.0, 0.0, 0.0, 0.003)"
2022/01/11/19:05:39.265469,13431,1641924339,265117102,imu_iphone,0.0213011286235,0.100436731509,-0.44087762711,0.891675749809,"(0.00872665, 0.0, 0.0, 0.0, 0.00872665, 0.0, 0.0, 0.0, 0.00872665)",0.676225244999,0.1057908535,-0.994330048561,"(0.000872665, 0.0, 0.0, 0.0, 0.000872665, 0.0, 0.0, 0.0, 0.000872665)",-1.52781839311,6.80370201945,-0.581789771318,"(0.003, 0.0, 0.0, 0.0, 0.003, 0.0, 0.0, 0.0, 0.003)"
2022/01/11/19:05:39.295351,13432,1641924339,295001002,imu_iphone,0.0309802413953,0.106785894108,-0.453155565466,0.884469915232,"(0.00872665, 0.0, 0.0, 0.0, 0.00872665, 0.0, 0.0, 0.0, 0.00872665)",0.552917838097,0.0788552761078,-0.914881467819,"(0.000872665, 0.0, 0.0, 0.0, 0.000872665, 0.0, 0.0, 0.0, 0.000872665)",-0.939276184067,7.65294226527,-0.445539706349,"(0.003, 0.0, 0.0, 0.0, 0.003, 0.0, 0.0, 0.0, 0.003)"
2022/01/11/19:05:39.325528,13433,1641924339,324779310,imu_iphone,0.0393624351827,0.110268278199,-0.464241528005,0.877935822936,"(0.00872665, 0.0, 0.0, 0.0, 0.00872665, 0.0, 0.0, 0.0, 0.00872665)",0.317367255688,0.10716919601,-0.7827450037,"(0.000872665, 0.0, 0.0, 0.0, 0.000872665, 0.0, 0.0, 0.0, 0.000872665)",-0.581963762529,8.67057647467,-0.176602284908,"(0.003, 0.0, 0.0, 0.0, 0.003, 0.0, 0.0, 0.0, 0.003)"
2022/01/11/19:05:39.354915,13434,1641924339,354542905,imu_iphone,0.0455173712968,0.110942154747,-0.474070211642,0.872282890835,"(0.00872665, 0.0, 0.0, 0.0, 0.00872665, 0.0, 0.0, 0.0, 0.00872665)",0.0620520301163,0.0637146010995,-0.632268846035,"(0.000872665, 0.0, 0.0, 0.0, 0.000872665, 0.0, 0.0, 0.0, 0.000872665)",-1.14443597786,9.6139896369,-0.14157746315,"(0.003, 0.0, 0.0, 0.0, 0.003, 0.0, 0.0, 0.0, 0.003)"
2022/01/11/19:05:39.384761,13435,1641924339,384239204,imu_iphone,0.0471028156775,0.109342050669,-0.47871194637,0.86986235297,"(0.00872665, 0.0, 0.0, 0.0, 0.00872665, 0.0, 0.0, 0.0, 0.00872665)",-0.172857373953,-0.0075257346034,0.0605815649033,"(0.000872665, 0.0, 0.0, 0.0, 0.000872665, 0.0, 0.0, 0.0, 0.000872665)",-0.676542731524,9.29298860729,-0.0115049815178,"(0.003, 0.0, 0.0, 0.0, 0.003, 0.0, 0.0, 0.0, 0.003)"
2022/01/11/19:05:39.414613,13436,1641924339,414154767,imu_iphone,0.0419549695561,0.106974096744,-0.471935480819,0.874112821722,"(0.00872665, 0.0, 0.0, 0.0, 0.00872665, 0.0, 0.0, 0.0, 0.00872665)",-0.40437233448,-0.0776412934065,0.949529588223,"(0.000872665, 0.0, 0.0, 0.0, 0.000872665, 0.0, 0.0, 0.0, 0.000872665)",-0.496472901553,9.56218038261,-0.0731428205967,"(0.003, 0.0, 0.0, 0.0, 0.003, 0.0, 0.0, 0.0, 0.003)"
2022/01/11/19:05:39.444215,13437,1641924339,443837604,imu_iphone,0.0309153859504,0.102759339746,-0.455302509674,0.883846356383,"(0.00872665, 0.0, 0.0, 0.0, 0.00872665, 0.0, 0.0, 0.0, 0.00872665)",-0.651561081409,-0.131436824799,1.49999511242,"(0.000872665, 0.0, 0.0, 0.0, 0.000872665, 0.0, 0.0, 0.0, 0.000872665)",-0.672111565322,9.42206121504,-0.426062631011,"(0.003, 0.0, 0.0, 0.0, 0.003, 0.0, 0.0, 0.0, 0.003)"
2022/01/11/19:05:39.474362,13438,1641924339,473938359,imu_iphone,0.0169999823916,0.0951750760873,-0.4347550467,0.895343931045,"(0.00872665, 0.0, 0.0, 0.0, 0.00872665, 0.0, 0.0, 0.0, 0.00872665)",-0.888776957989,-0.14195021987,1.54779565334,"(0.000872665, 0.0, 0.0, 0.0, 0.000872665, 0.0, 0.0, 0.0, 0.000872665)",-0.186145452484,8.79136123896,-0.704609951377,"(0.003, 0.0, 0.0, 0.0, 0.003, 0.0, 0.0, 0.0, 0.003)"
2022/01/11/19:05:39.503809,13439,1641924339,503372649,imu_iphone,0.00288527773703,0.0833199065667,-0.415393862265,0.905813119542,"(0.00872665, 0.0, 0.0, 0.0, 0.00872665, 0.0, 0.0, 0.0, 0.00872665)",-1.07212603092,-0.126813143492,1.501044631,"(0.000872665, 0.0, 0.0, 0.0, 0.000872665, 0.0, 0.0, 0.0, 0.000872665)",-0.0859339702874,7.23840625048,-1.20275179446,"(0.003, 0.0, 0.0, 0.0, 0.003, 0.0, 0.0, 0.0, 0.003)"
2022/01/11/19:05:39.544231,13440,1641924339,543779920,imu_iphone,-0.0104348036299,0.0682360375506,-0.397016007993,0.915212132486,"(0.00872665, 0.0, 0.0, 0.0, 0.00872665, 0.0, 0.0, 0.0, 0.00872665)",-1.19191908836,-0.0901676341891,1.47249567509,"(0.000872665, 0.0, 0.0, 0.0, 0.000872665, 0.0, 0.0, 0.0, 0.000872665)",0.451848559678,5.75336082458,-1.55460156441,"(0.003, 0.0, 0.0, 0.0, 0.003, 0.0, 0.0, 0.0, 0.003)"
2022/01/11/19:05:39.563392,13441,1641924339,562954977,imu_iphone,-0.021996657954,0.0507702636471,-0.379548925794,0.923515641609,"(0.00872665, 0.0, 0.0, 0.0, 0.00872665, 0.0, 0.0, 0.0, 0.00872665)",-1.25462186337,-0.0251327045262,1.43460440636,"(0.000872665, 0.0, 0.0, 0.0, 0.000872665, 0.0, 0.0, 0.0, 0.000872665)",0.444479533061,4.44774481237,-1.73343631625,"(0.003, 0.0, 0.0, 0.0, 0.003, 0.0, 0.0, 0.0, 0.003)"
2022/01/11/19:05:39.593456,13442,1641924339,592998819,imu_iphone,-0.0314386999534,0.0315983976279,-0.361666210974,0.931241483855,"(0.00872665, 0.0, 0.0, 0.0, 0.00872665, 0.0, 0.0, 0.0, 0.00872665)",-1.27364444733,0.0385153964162,1.51535081863,"(0.000872665, 0.0, 0.0, 0.0, 0.000872665, 0.0, 0.0, 0.0, 0.000872665)",0.0519862787426,3.36463728279,-1.92640671194,"(0.003, 0.0, 0.0, 0.0, 0.003, 0.0, 0.0, 0.0, 0.003)"
2022/01/11/19:05:39.622915,13443,1641924339,622544741,imu_iphone,-0.0386423231668,0.0111955034275,-0.341093117539,0.939168204706,"(0.00872665, 0.0, 0.0, 0.0, 0.00872665, 0.0, 0.0, 0.0, 0.00872665)",-1.2271617651,0.0970486551523,1.82096135616,"(0.000872665, 0.0, 0.0, 0.0, 0.000872665, 0.0, 0.0, 0.0, 0.000872665)",0.0995940893143,1.70757992864,-1.99088220477,"(0.003, 0.0, 0.0, 0.0, 0.003, 0.0, 0.0, 0.0, 0.003)"
2022/01/11/19:05:39.653529,13444,1641924339,652601433,imu_iphone,-0.0427484406901,-0.00943999413411,-0.314496656744,0.94824854876,"(0.00872665, 0.0, 0.0, 0.0, 0.00872665, 0.0, 0.0, 0.0, 0.00872665)",-1.12061262131,0.141930475831,2.24879550934,"(0.000872665, 0.0, 0.0, 0.0, 0.000872665, 0.0, 0.0, 0.0, 0.000872665)",-0.727783855721,0.558570916504,-2.20659183741,"(0.003, 0.0, 0.0, 0.0, 0.003, 0.0, 0.0, 0.0, 0.003)"
2022/01/11/19:05:39.682468,13445,1641924339,682165854,imu_iphone,-0.0432121455956,-0.0299014336623,-0.28292439715,0.957701623803,"(0.00872665, 0.0, 0.0, 0.0, 0.00872665, 0.0, 0.0, 0.0, 0.00872665)",-1.04197323322,0.190697938204,2.32003474236,"(0.000872665, 0.0, 0.0, 0.0, 0.000872665, 0.0, 0.0, 0.0, 0.000872665)",-1.48918174624,0.524371575415,-2.23080223382,"(0.003, 0.0, 0.0, 0.0, 0.003, 0.0, 0.0, 0.0, 0.003)"
2022/01/11/19:05:39.713256,13446,1641924339,711898169,imu_iphone,-0.0404424417837,-0.049311172164,-0.252154861903,0.965583110261,"(0.00872665, 0.0, 0.0, 0.0, 0.00872665, 0.0, 0.0, 0.0, 0.00872665)",-0.985656023026,0.22469843924,2.0704832077,"(0.000872665, 0.0, 0.0, 0.0, 0.000872665, 0.0, 0.0, 0.0, 0.000872665)",-1.83628036112,0.234635900259,-2.34533690929,"(0.003, 0.0, 0.0, 0.0, 0.003, 0.0, 0.0, 0.0, 0.003)"
2022/01/11/19:05:39.741966,13447,1641924339,741656512,imu_iphone,-0.0355488260479,-0.0673620452392,-0.224512356384,0.971490009037,"(0.00872665, 0.0, 0.0, 0.0, 0.00872665, 0.0, 0.0, 0.0, 0.00872665)",-0.952630341053,0.244093865156,1.78450763226,"(0.000872665, 0.0, 0.0, 0.0, 0.000872665, 0.0, 0.0, 0.0, 0.000872665)",-2.38628817648,-0.00893045246601,-2.39373138964,"(0.003, 0.0, 0.0, 0.0, 0.003, 0.0, 0.0, 0.0, 0.003)"
2022/01/11/19:05:39.772195,13448,1641924339,771745349,imu_iphone,-0.0290501533273,-0.0844218317495,-0.19884318766,0.975956161739,"(0.00872665, 0.0, 0.0, 0.0, 0.00872665, 0.0, 0.0, 0.0, 0.00872665)",-0.942533016205,0.257807403803,1.75638222694,"(0.000872665, 0.0, 0.0, 0.0, 0.000872665, 0.0, 0.0, 0.0, 0.000872665)",-2.6507118398,-0.653452953994,-2.44827421725,"(0.003, 0.0, 0.0, 0.0, 0.003, 0.0, 0.0, 0.0, 0.003)"
2022/01/11/19:05:39.801630,13449,1641924339,801264586,imu_iphone,-0.0199048010716,-0.101098898024,-0.170154783425,0.980015388344,"(0.00872665, 0.0, 0.0, 0.0, 0.00872665, 0.0, 0.0, 0.0, 0.00872665)",-0.966866314411,0.282959997654,1.99352645874,"(0.000872665, 0.0, 0.0, 0.0, 0.000872665, 0.0, 0.0, 0.0, 0.000872665)",-3.49627067864,-1.12720723003,-2.24991385818,"(0.003, 0.0, 0.0, 0.0, 0.003, 0.0, 0.0, 0.0, 0.003)"
2022/01/11/19:05:39.832273,13450,1641924339,831829026,imu_iphone,-0.00770186521675,-0.117130935407,-0.137520756949,0.983518716981,"(0.00872665, 0.0, 0.0, 0.0, 0.00872665, 0.0, 0.0, 0.0, 0.00872665)",-0.967317759991,0.294910818338,2.1285431385,"(0.000872665, 0.0, 0.0, 0.0, 0.000872665, 0.0, 0.0, 0.0, 0.000872665)",-3.28064407647,-1.78464623094,-2.0830734998,"(0.003, 0.0, 0.0, 0.0, 0.003, 0.0, 0.0, 0.0, 0.003)"
2022/01/11/19:05:39.861140,13451,1641924339,860787495,imu_iphone,0.00744407223346,-0.132041217059,-0.102729933664,0.985878422279,"(0.00872665, 0.0, 0.0, 0.0, 0.00872665, 0.0, 0.0, 0.0, 0.00872665)",-0.97608590126,0.342660605907,2.12905669212,"(0.000872665, 0.0, 0.0, 0.0, 0.000872665, 0.0, 0.0, 0.0, 0.000872665)",-3.46826836288,-3.08362799227,-1.71715240538,"(0.003, 0.0, 0.0, 0.0, 0.003, 0.0, 0.0, 0.0, 0.003)"
2022/01/11/19:05:39.890852,13452,1641924339,890542259,imu_iphone,0.0251072803902,-0.144825414731,-0.0672287233614,0.986851317309,"(0.00872665, 0.0, 0.0, 0.0, 0.00872665, 0.0, 0.0, 0.0, 0.00872665)",-0.909624278545,0.371540874243,2.04634857178,"(0.000872665, 0.0, 0.0, 0.0, 0.000872665, 0.0, 0.0, 0.0, 0.000872665)",-3.6468312192,-4.91678330898,-1.35000982761,"(0.003, 0.0, 0.0, 0.0, 0.003, 0.0, 0.0, 0.0, 0.003)"
2022/01/11/19:05:39.920876,13453,1641924339,920434334,imu_iphone,0.0430940173835,-0.154825259202,-0.0351296169608,0.986376173065,"(0.00872665, 0.0, 0.0, 0.0, 0.00872665, 0.0, 0.0, 0.0, 0.00872665)",-0.79862177372,0.380388349295,1.59824180603,"(0.000872665, 0.0, 0.0, 0.0, 0.000872665, 0.0, 0.0, 0.0, 0.000872665)",-4.19298513472,-6.15764842451,-1.06268817544,"(0.003, 0.0, 0.0, 0.0, 0.003, 0.0, 0.0, 0.0, 0.003)"
2022/01/11/19:05:39.951224,13454,1641924339,950560378,imu_iphone,0.058101608433,-0.16259558864,-0.0116028715095,0.984912306261,"(0.00872665, 0.0, 0.0, 0.0, 0.00872665, 0.0, 0.0, 0.0, 0.00872665)",-0.671137452126,0.366963326931,1.00642168522,"(0.000872665, 0.0, 0.0, 0.0, 0.000872665, 0.0, 0.0, 0.0, 0.000872665)",-3.61002387375,-6.325668751,-0.831769934893,"(0.003, 0.0, 0.0, 0.0, 0.003, 0.0, 0.0, 0.0, 0.003)"
2022/01/11/19:05:39.980406,13455,1641924339,980058944,imu_iphone,0.0698634297837,-0.168932438412,0.00410156300124,0.98313992372,"(0.00872665, 0.0, 0.0, 0.0, 0.00872665, 0.0, 0.0, 0.0, 0.00872665)",-0.526573717594,0.358826607466,0.624689459801,"(0.000872665, 0.0, 0.0, 0.0, 0.000872665, 0.0, 0.0, 0.0, 0.000872665)",-2.73974271476,-7.31147831976,-0.650592203736,"(0.003, 0.0, 0.0, 0.0, 0.003, 0.0, 0.0, 0.0, 0.003)"
2022/01/11/19:05:40.010162,13456,1641924340,9753544,imu_iphone,0.0790592500372,-0.173549578993,0.014419448444,0.981540757239,"(0.00872665, 0.0, 0.0, 0.0, 0.00872665, 0.0, 0.0, 0.0, 0.00872665)",-0.355846613646,0.311952233315,0.384692579508,"(0.000872665, 0.0, 0.0, 0.0, 0.000872665, 0.0, 0.0, 0.0, 0.000872665)",-3.21788357198,-8.06118784547,-0.557749528885,"(0.003, 0.0, 0.0, 0.0, 0.003, 0.0, 0.0, 0.0, 0.003)"
2022/01/11/19:05:40.045740,13457,1641924340,45397783,imu_iphone,0.0863161020084,-0.175706031401,0.0222416286425,0.980399016227,"(0.00872665, 0.0, 0.0, 0.0, 0.00872665, 0.0, 0.0, 0.0, 0.00872665)",-0.159436821938,0.214711889625,0.404762625694,"(0.000872665, 0.0, 0.0, 0.0, 0.000872665, 0.0, 0.0, 0.0, 0.000872665)",-3.95801535845,-8.35792351484,-0.460754161477,"(0.003, 0.0, 0.0, 0.0, 0.003, 0.0, 0.0, 0.0, 0.003)"
2022/01/11/19:05:40.071009,13458,1641924340,70627487,imu_iphone,0.0914173734286,-0.17512410764,0.0284792100027,0.979879250396,"(0.00872665, 0.0, 0.0, 0.0, 0.00872665, 0.0, 0.0, 0.0, 0.00872665)",0.0321486368775,0.0814690738916,0.244128733873,"(0.000872665, 0.0, 0.0, 0.0, 0.000872665, 0.0, 0.0, 0.0, 0.000872665)",-4.15243410945,-8.23067348421,-0.298952348828,"(0.003, 0.0, 0.0, 0.0, 0.003, 0.0, 0.0, 0.0, 0.003)"
2022/01/11/19:05:40.099479,13459,1641924340,99082947,imu_iphone,0.092042921094,-0.172913624186,0.0292972477488,0.980189089167,"(0.00872665, 0.0, 0.0, 0.0, 0.00872665, 0.0, 0.0, 0.0, 0.00872665)",0.233782634139,-0.0579553693533,-0.0731094554067,"(0.000872665, 0.0, 0.0, 0.0, 0.000872665, 0.0, 0.0, 0.0, 0.000872665)",-4.00525852203,-8.51557965159,-0.215906099081,"(0.003, 0.0, 0.0, 0.0, 0.003, 0.0, 0.0, 0.0, 0.003)"
2022/01/11/19:05:40.133407,13460,1641924340,133052008,imu_iphone,0.0879003455909,-0.169100272929,0.0240952162798,0.981375589412,"(0.00872665, 0.0, 0.0, 0.0, 0.00872665, 0.0, 0.0, 0.0, 0.00872665)",0.445803940296,-0.21286650002,-0.35909435153,"(0.000872665, 0.0, 0.0, 0.0, 0.000872665, 0.0, 0.0, 0.0, 0.000872665)",-4.29646243304,-8.93403914809,-0.352474252582,"(0.003, 0.0, 0.0, 0.0, 0.003, 0.0, 0.0, 0.0, 0.003)"
2022/01/11/19:05:40.158817,13461,1641924340,158410218,imu_iphone,0.0791379146612,-0.16321112765,0.0132529501071,0.983322773858,"(0.00872665, 0.0, 0.0, 0.0, 0.00872665, 0.0, 0.0, 0.0, 0.00872665)",0.659767627716,-0.369185388088,-0.609658122063,"(0.000872665, 0.0, 0.0, 0.0, 0.000872665, 0.0, 0.0, 0.0, 0.000872665)",-4.51031060457,-8.03650499403,-0.703290819526,"(0.003, 0.0, 0.0, 0.0, 0.003, 0.0, 0.0, 0.0, 0.003)"
2022/01/11/19:05:40.188546,13462,1641924340,188120144,imu_iphone,0.0670583068233,-0.154842876541,-0.00187020411502,0.985658850418,"(0.00872665, 0.0, 0.0, 0.0, 0.00872665, 0.0, 0.0, 0.0, 0.00872665)",0.848515331745,-0.459823280573,-0.847866415977,"(0.000872665, 0.0, 0.0, 0.0, 0.000872665, 0.0, 0.0, 0.0, 0.000872665)",-2.97721509933,-7.42472017586,-1.04303509891,"(0.003, 0.0, 0.0, 0.0, 0.003, 0.0, 0.0, 0.0, 0.003)"
2022/01/11/19:05:40.218272,13463,1641924340,217789555,imu_iphone,0.0530044963235,-0.143718427001,-0.0209028184015,0.987977028727,"(0.00872665, 0.0, 0.0, 0.0, 0.00872665, 0.0, 0.0, 0.0, 0.00872665)",1.03106117249,-0.50080960989,-1.11796712875,"(0.000872665, 0.0, 0.0, 0.0, 0.000872665, 0.0, 0.0, 0.0, 0.000872665)",-2.85855112016,-7.05898443818,-1.53004852116,"(0.003, 0.0, 0.0, 0.0, 0.003, 0.0, 0.0, 0.0, 0.003)"
2022/01/11/19:05:40.248748,13464,1641924340,248364459,imu_iphone,0.0367986739676,-0.130274676878,-0.0463860817907,0.989708390171,"(0.00872665, 0.0, 0.0, 0.0, 0.00872665, 0.0, 0.0, 0.0, 0.00872665)",1.15002071857,-0.522833526134,-1.60170316696,"(0.000872665, 0.0, 0.0, 0.0, 0.000872665, 0.0, 0.0, 0.0, 0.000872665)",-3.20868239343,-4.75574485034,-1.88682281613,"(0.003, 0.0, 0.0, 0.0, 0.003, 0.0, 0.0, 0.0, 0.003)"
2022/01/11/19:05:40.278716,13465,1641924340,278321362,imu_iphone,0.0209060457399,-0.114474283849,-0.0742112673077,0.990429837693,"(0.00872665, 0.0, 0.0, 0.0, 0.00872665, 0.0, 0.0, 0.0, 0.00872665)",1.21254241467,-0.514721393585,-1.53489494324,"(0.000872665, 0.0, 0.0, 0.0, 0.000872665, 0.0, 0.0, 0.0, 0.000872665)",-2.36859494045,-3.33707438529,-2.10131564319,"(0.003, 0.0, 0.0, 0.0, 0.003, 0.0, 0.0, 0.0, 0.003)"
2022/01/11/19:05:40.309466,13466,1641924340,308008994,imu_iphone,0.00776371608654,-0.0967279577431,-0.0989799938522,0.990346599792,"(0.00872665, 0.0, 0.0, 0.0, 0.00872665, 0.0, 0.0, 0.0, 0.00872665)",1.22733855247,-0.507112443447,-1.43032050133,"(0.000872665, 0.0, 0.0, 0.0, 0.000872665, 0.0, 0.0, 0.0, 0.000872665)",-2.4783490786,-1.90871303737,-2.34476154327,"(0.003, 0.0, 0.0, 0.0, 0.003, 0.0, 0.0, 0.0, 0.003)"
2022/01/11/19:05:40.338174,13467,1641924340,337831350,imu_iphone,-0.00379257871377,-0.0782458898915,-0.124004991978,0.989184491906,"(0.00872665, 0.0, 0.0, 0.0, 0.00872665, 0.0, 0.0, 0.0, 0.00872665)",1.17780685425,-0.483449846506,-1.68807959557,"(0.000872665, 0.0, 0.0, 0.0, 0.000872665, 0.0, 0.0, 0.0, 0.000872665)",-2.33485285163,-0.0192447946966,-2.30705694258,"(0.003, 0.0, 0.0, 0.0, 0.003, 0.0, 0.0, 0.0, 0.003)"
2022/01/11/19:05:40.367826,13468,1641924340,367361763,imu_iphone,-0.013967011453,-0.059716756218,-0.152188855526,0.986446847971,"(0.00872665, 0.0, 0.0, 0.0, 0.00872665, 0.0, 0.0, 0.0, 0.00872665)",1.10506331921,-0.43725001812,-1.93667888641,"(0.000872665, 0.0, 0.0, 0.0, 0.000872665, 0.0, 0.0, 0.0, 0.000872665)",-1.81278157085,0.966432042271,-2.28424695432,"(0.003, 0.0, 0.0, 0.0, 0.003, 0.0, 0.0, 0.0, 0.003)"
2022/01/11/19:05:40.399804,13469,1641924340,399379250,imu_iphone,-0.0217573365745,-0.0413223298917,-0.181341768203,0.98231066698,"(0.00872665, 0.0, 0.0, 0.0, 0.00872665, 0.0, 0.0, 0.0, 0.00872665)",1.0448577404,-0.38025906682,-1.97941422462,"(0.000872665, 0.0, 0.0, 0.0, 0.000872665, 0.0, 0.0, 0.0, 0.000872665)",-1.08776615247,1.44860703975,-2.33152987897,"(0.003, 0.0, 0.0, 0.0, 0.003, 0.0, 0.0, 0.0, 0.003)"
2022/01/11/19:05:40.431387,13470,1641924340,429465045,imu_iphone,-0.0265508063669,-0.0235897292855,-0.208643628253,0.97734662006,"(0.00872665, 0.0, 0.0, 0.0, 0.00872665, 0.0, 0.0, 0.0, 0.00872665)",0.973675429821,-0.303380072117,-1.82630801201,"(0.000872665, 0.0, 0.0, 0.0, 0.000872665, 0.0, 0.0, 0.0, 0.000872665)",-0.891678825393,1.71094149292,-2.1434430778,"(0.003, 0.0, 0.0, 0.0, 0.003, 0.0, 0.0, 0.0, 0.003)"
2022/01/11/19:05:40.457214,13471,1641924340,456877945,imu_iphone,-0.0287858761976,-0.00649545839725,-0.23561031168,0.97139948702,"(0.00872665, 0.0, 0.0, 0.0, 0.00872665, 0.0, 0.0, 0.0, 0.00872665)",0.91695702076,-0.254546105862,-2.10127663612,"(0.000872665, 0.0, 0.0, 0.0, 0.000872665, 0.0, 0.0, 0.0, 0.000872665)",-1.62359622404,2.87462423891,-2.13128905535,"(0.003, 0.0, 0.0, 0.0, 0.003, 0.0, 0.0, 0.0, 0.003)"
2022/01/11/19:05:40.486940,13472,1641924340,486544232,imu_iphone,-0.0285606785558,0.010116762939,-0.267025087027,0.963213134071,"(0.00872665, 0.0, 0.0, 0.0, 0.00872665, 0.0, 0.0, 0.0, 0.00872665)",0.875574171543,-0.197994157672,-2.33869385719,"(0.000872665, 0.0, 0.0, 0.0, 0.000872665, 0.0, 0.0, 0.0, 0.000872665)",-1.07897544846,3.29339656144,-1.96561229289,"(0.003, 0.0, 0.0, 0.0, 0.003, 0.0, 0.0, 0.0, 0.003)"
2022/01/11/19:05:40.516595,13473,1641924340,516252302,imu_iphone,-0.0254164761363,0.0258504581632,-0.298022354765,0.953870238876,"(0.00872665, 0.0, 0.0, 0.0, 0.00872665, 0.0, 0.0, 0.0, 0.00872665)",0.857272386551,-0.120118550956,-2.19221973419,"(0.000872665, 0.0, 0.0, 0.0, 0.000872665, 0.0, 0.0, 0.0, 0.000872665)",-0.58461068742,3.20889844805,-1.7799871695,"(0.003, 0.0, 0.0, 0.0, 0.003, 0.0, 0.0, 0.0, 0.003)"
2022/01/11/19:05:40.546442,13474,1641924340,546187870,imu_iphone,-0.0197810663386,0.0403314706979,-0.326033571817,0.944290311257,"(0.00872665, 0.0, 0.0, 0.0, 0.00872665, 0.0, 0.0, 0.0, 0.00872665)",0.831062316895,-0.0673832222819,-1.91962432861,"(0.000872665, 0.0, 0.0, 0.0, 0.000872665, 0.0, 0.0, 0.0, 0.000872665)",-1.04979389548,4.43640004456,-1.47720197082,"(0.003, 0.0, 0.0, 0.0, 0.003, 0.0, 0.0, 0.0, 0.003)"
2022/01/11/19:05:40.576298,13475,1641924340,575870549,imu_iphone,-0.0130271701951,0.0531389468627,-0.349020482675,0.935516567377,"(0.00872665, 0.0, 0.0, 0.0, 0.00872665, 0.0, 0.0, 0.0, 0.00872665)",0.771117448807,-0.0504052489996,-1.53223443031,"(0.000872665, 0.0, 0.0, 0.0, 0.000872665, 0.0, 0.0, 0.0, 0.000872665)",-1.62003205374,5.67843343377,-0.938601488471,"(0.003, 0.0, 0.0, 0.0, 0.003, 0.0, 0.0, 0.0, 0.003)"
2022/01/11/19:05:40.606220,13476,1641924340,605864878,imu_iphone,-0.00644521683781,0.0643193474762,-0.366432087368,0.928196641918,"(0.00872665, 0.0, 0.0, 0.0, 0.00872665, 0.0, 0.0, 0.0, 0.00872665)",0.704190790653,-0.0586475282907,-1.1644641161,"(0.000872665, 0.0, 0.0, 0.0, 0.000872665, 0.0, 0.0, 0.0, 0.000872665)",-1.52348399833,6.48564857125,-0.759922857285,"(0.003, 0.0, 0.0, 0.0, 0.003, 0.0, 0.0, 0.0, 0.003)"
2022/01/11/19:05:40.635842,13477,1641924340,635495789,imu_iphone,-0.000517222763022,0.0738437028856,-0.380312519077,0.921905216309,"(0.00872665, 0.0, 0.0, 0.0, 0.00872665, 0.0, 0.0, 0.0, 0.00872665)",0.589872658253,-0.0779231712222,-1.0646725893,"(0.000872665, 0.0, 0.0, 0.0, 0.000872665, 0.0, 0.0, 0.0, 0.000872665)",-2.05245967135,7.74432430565,-0.310867220163,"(0.003, 0.0, 0.0, 0.0, 0.003, 0.0, 0.0, 0.0, 0.003)"
2022/01/11/19:05:40.665776,13478,1641924340,665329219,imu_iphone,0.00521809423777,0.0812899956673,-0.396033693952,0.914615777992,"(0.00872665, 0.0, 0.0, 0.0, 0.00872665, 0.0, 0.0, 0.0, 0.00872665)",0.423988938332,-0.121813341975,-1.33705055714,"(0.000872665, 0.0, 0.0, 0.0, 0.000872665, 0.0, 0.0, 0.0, 0.000872665)",-2.52448127121,9.52034530878,-0.213560780883,"(0.003, 0.0, 0.0, 0.0, 0.003, 0.0, 0.0, 0.0, 0.003)"
2022/01/11/19:05:40.700720,13479,1641924340,700376911,imu_iphone,0.0100862012327,0.0861706946932,-0.413909968003,0.906174055195,"(0.00872665, 0.0, 0.0, 0.0, 0.00872665, 0.0, 0.0, 0.0, 0.00872665)",0.230074122548,-0.182277545333,-1.22923493385,"(0.000872665, 0.0, 0.0, 0.0, 0.000872665, 0.0, 0.0, 0.0, 0.000872665)",-2.07214826971,9.74593907475,0.0451171159744,"(0.003, 0.0, 0.0, 0.0, 0.003, 0.0, 0.0, 0.0, 0.003)"
2022/01/11/19:05:40.725246,13480,1641924340,724896136,imu_iphone,0.0114226528832,0.089042514694,-0.425119323141,0.900674477639,"(0.00872665, 0.0, 0.0, 0.0, 0.00872665, 0.0, 0.0, 0.0, 0.00872665)",0.0630836710334,-0.250105261803,-0.317029297352,"(0.000872665, 0.0, 0.0, 0.0, 0.000872665, 0.0, 0.0, 0.0, 0.000872665)",-2.09458286673,8.606837731,0.158023926616,"(0.003, 0.0, 0.0, 0.0, 0.003, 0.0, 0.0, 0.0, 0.003)"
2022/01/11/19:05:40.755144,13481,1641924340,754755365,imu_iphone,0.00575618576004,0.0909701629684,-0.41932572391,0.903248156955,"(0.00872665, 0.0, 0.0, 0.0, 0.00872665, 0.0, 0.0, 0.0, 0.00872665)",-0.0637560263276,-0.362118452787,1.08430027962,"(0.000872665, 0.0, 0.0, 0.0, 0.000872665, 0.0, 0.0, 0.0, 0.000872665)",-2.75810297191,7.68447629929,-0.104787951708,"(0.003, 0.0, 0.0, 0.0, 0.003, 0.0, 0.0, 0.0, 0.003)"
2022/01/11/19:05:40.784786,13482,1641924340,784477244,imu_iphone,-0.00672384205536,0.0915303094935,-0.398879880743,0.912398944065,"(0.00872665, 0.0, 0.0, 0.0, 0.00872665, 0.0, 0.0, 0.0, 0.00872665)",-0.223968207836,-0.473297655582,1.70138716698,"(0.000872665, 0.0, 0.0, 0.0, 0.000872665, 0.0, 0.0, 0.0, 0.000872665)",-3.52809005678,7.57089179635,0.0290366882086,"(0.003, 0.0, 0.0, 0.0, 0.003, 0.0, 0.0, 0.0, 0.003)"
2022/01/11/19:05:40.824302,13483,1641924340,823749571,imu_iphone,-0.0225085122731,0.0894268334007,-0.374906218009,0.922464924017,"(0.00872665, 0.0, 0.0, 0.0, 0.00872665, 0.0, 0.0, 0.0, 0.00872665)",-0.369761586189,-0.54216003418,1.67574822903,"(0.000872665, 0.0, 0.0, 0.0, 0.000872665, 0.0, 0.0, 0.0, 0.000872665)",-1.9964142555,6.93200630307,-0.541515319347,"(0.003, 0.0, 0.0, 0.0, 0.003, 0.0, 0.0, 0.0, 0.003)"
2022/01/11/19:05:40.844779,13484,1641924340,844171924,imu_iphone,-0.0380532925235,0.0841234673548,-0.354851523142,0.93035239866,"(0.00872665, 0.0, 0.0, 0.0, 0.00872665, 0.0, 0.0, 0.0, 0.00872665)",-0.523400127888,-0.52681261301,1.3394985199,"(0.000872665, 0.0, 0.0, 0.0, 0.000872665, 0.0, 0.0, 0.0, 0.000872665)",-0.652940591723,6.10346461594,-0.493578091264,"(0.003, 0.0, 0.0, 0.0, 0.003, 0.0, 0.0, 0.0, 0.003)"
