time,.header.seq,.header.stamp.secs,.header.stamp.nsecs,.header.frame_id,.orientation.x,.orientation.y,.orientation.z,.orientation.w,.orientation_covariance,.angular_velocity.x,.angular_velocity.y,.angular_velocity.z,.angular_velocity_covariance,.linear_acceleration.x,.linear_acceleration.y,.linear_acceleration.z,.linear_acceleration_covariance
2021/11/08/17:20:16.247675,59827,1636388416,246376090,imu_iphone,-0.0386330542268,0.0695473841634,-0.112949148757,0.990410590751,"(0.00872665, 0.0, 0.0, 0.0, 0.00872665, 0.0, 0.0, 0.0, 0.00872665)",-0.342468857765,0.154432669282,-0.464764922857,"(0.000872665, 0.0, 0.0, 0.0, 0.000872665, 0.0, 0.0, 0.0, 0.000872665)",0.854088683948,2.12054494277,-0.0870591938496,"(0.003, 0.0, 0.0, 0.0, 0.003, 0.0, 0.0, 0.0, 0.003)"
2021/11/08/17:20:16.251707,59828,1636388416,250000108,imu_iphone,-0.0352634705028,0.0644847084799,-0.121132772127,0.989911643298,"(0.00872665, 0.0, 0.0, 0.0, 0.00872665, 0.0, 0.0, 0.0, 0.00872665)",-0.416765093803,0.180902451277,-0.503863751888,"(0.000872665, 0.0, 0.0, 0.0, 0.000872665, 0.0, 0.0, 0.0, 0.000872665)",0.754169927984,1.96166995391,-0.157326353788,"(0.003, 0.0, 0.0, 0.0, 0.003, 0.0, 0.0, 0.0, 0.003)"
2021/11/08/17:20:16.275692,59829,1636388416,274861277,imu_iphone,-0.0317436981954,0.0582662508735,-0.12992026381,0.9893018279,"(0.00872665, 0.0, 0.0, 0.0, 0.00872665, 0.0, 0.0, 0.0, 0.00872665)",-0.486848324537,0.205911502242,-0.539862394333,"(0.000872665, 0.0, 0.0, 0.0, 0.000872665, 0.0, 0.0, 0.0, 0.000872665)",0.63369338505,1.76854475319,-0.246396405101,"(0.003, 0.0, 0.0, 0.0, 0.003, 0.0, 0.0, 0.0, 0.003)"
2021/11/08/17:20:16.306267,59830,1636388416,304906445,imu_iphone,-0.0281873948662,0.0509686092977,-0.139261641764,0.988541282279,"(0.00872665, 0.0, 0.0, 0.0, 0.00872665, 0.0, 0.0, 0.0, 0.00872665)",-0.550280451775,0.224021315575,-0.581905186176,"(0.000872665, 0.0, 0.0, 0.0, 0.000872665, 0.0, 0.0, 0.0, 0.000872665)",0.502593035996,1.52989356995,-0.332553958297,"(0.003, 0.0, 0.0, 0.0, 0.003, 0.0, 0.0, 0.0, 0.003)"
2021/11/08/17:20:16.353642,59831,1636388416,352935706,imu_iphone,-0.0247078411342,0.0427562132601,-0.149370192242,0.987547454295,"(0.00872665, 0.0, 0.0, 0.0, 0.00872665, 0.0, 0.0, 0.0, 0.00872665)",-0.599772274494,0.235161498189,-0.644226610661,"(0.000872665, 0.0, 0.0, 0.0, 0.000872665, 0.0, 0.0, 0.0, 0.000872665)",0.355251606926,1.24415651321,-0.420869134068,"(0.003, 0.0, 0.0, 0.0, 0.003, 0.0, 0.0, 0.0, 0.003)"
2021/11/08/17:20:16.364706,59832,1636388416,364091267,imu_iphone,-0.0214447825318,0.0338548785229,-0.16057259007,0.986210125592,"(0.00872665, 0.0, 0.0, 0.0, 0.00872665, 0.0, 0.0, 0.0, 0.00872665)",-0.637935757637,0.233054056764,-0.741455316544,"(0.000872665, 0.0, 0.0, 0.0, 0.000872665, 0.0, 0.0, 0.0, 0.000872665)",0.173725345172,0.975356866792,-0.485216572881,"(0.003, 0.0, 0.0, 0.0, 0.003, 0.0, 0.0, 0.0, 0.003)"
2021/11/08/17:20:16.394306,59833,1636388416,393695194,imu_iphone,-0.0185856596814,0.0244406026714,-0.17305315023,0.984433764857,"(0.00872665, 0.0, 0.0, 0.0, 0.00872665, 0.0, 0.0, 0.0, 0.00872665)",-0.66373449564,0.228664696217,-0.843989551067,"(0.000872665, 0.0, 0.0, 0.0, 0.000872665, 0.0, 0.0, 0.0, 0.000872665)",0.0635442871973,0.641573312134,-0.552287060022,"(0.003, 0.0, 0.0, 0.0, 0.003, 0.0, 0.0, 0.0, 0.003)"
2021/11/08/17:20:16.454170,59834,1636388416,453576925,imu_iphone,-0.0162891168665,0.014715921511,-0.186990899035,0.982116342397,"(0.00872665, 0.0, 0.0, 0.0, 0.00872665, 0.0, 0.0, 0.0, 0.00872665)",-0.677935123444,0.216667234898,-0.961775541306,"(0.000872665, 0.0, 0.0, 0.0, 0.000872665, 0.0, 0.0, 0.0, 0.000872665)",-0.0981151092052,0.366306352839,-0.585008078814,"(0.003, 0.0, 0.0, 0.0, 0.003, 0.0, 0.0, 0.0, 0.003)"
2021/11/08/17:20:16.459030,59835,1636388416,458528020,imu_iphone,-0.0147920344234,0.00488865074192,-0.202525696328,0.979153021309,"(0.00872665, 0.0, 0.0, 0.0, 0.00872665, 0.0, 0.0, 0.0, 0.00872665)",-0.682541072369,0.195208668709,-1.0907484293,"(0.000872665, 0.0, 0.0, 0.0, 0.000872665, 0.0, 0.0, 0.0, 0.000872665)",-0.190827354603,0.0778007674031,-0.624024209976,"(0.003, 0.0, 0.0, 0.0, 0.003, 0.0, 0.0, 0.0, 0.003)"
2021/11/08/17:20:16.484102,59836,1636388416,483421551,imu_iphone,-0.0142609048609,-0.00487481073497,-0.219748836986,0.975440060412,"(0.00872665, 0.0, 0.0, 0.0, 0.00872665, 0.0, 0.0, 0.0, 0.00872665)",-0.681298017502,0.171634286642,-1.22047662735,"(0.000872665, 0.0, 0.0, 0.0, 0.000872665, 0.0, 0.0, 0.0, 0.000872665)",-0.26646289805,-0.196393136457,-0.642728868127,"(0.003, 0.0, 0.0, 0.0, 0.003, 0.0, 0.0, 0.0, 0.003)"
2021/11/08/17:20:16.514657,59837,1636388416,513786174,imu_iphone,-0.0148515757927,-0.0143902070905,-0.23861850635,0.970893176958,"(0.00872665, 0.0, 0.0, 0.0, 0.00872665, 0.0, 0.0, 0.0, 0.00872665)",-0.674263119698,0.144830852747,-1.34084379673,"(0.000872665, 0.0, 0.0, 0.0, 0.000872665, 0.0, 0.0, 0.0, 0.000872665)",-0.297148263529,-0.418192936555,-0.66417645514,"(0.003, 0.0, 0.0, 0.0, 0.003, 0.0, 0.0, 0.0, 0.003)"
2021/11/08/17:20:16.559349,59838,1636388416,558716100,imu_iphone,-0.0166609647325,-0.0235109292616,-0.258939892881,0.965463505439,"(0.00872665, 0.0, 0.0, 0.0, 0.00872665, 0.0, 0.0, 0.0, 0.00872665)",-0.662273287773,0.115462079644,-1.43990051746,"(0.000872665, 0.0, 0.0, 0.0, 0.000872665, 0.0, 0.0, 0.0, 0.000872665)",-0.292131425589,-0.625797962844,-0.658007057905,"(0.003, 0.0, 0.0, 0.0, 0.003, 0.0, 0.0, 0.0, 0.003)"
2021/11/08/17:20:16.573104,59839,1636388416,572709703,imu_iphone,-0.0197566275881,-0.0321211948834,-0.280423103334,0.95913543758,"(0.00872665, 0.0, 0.0, 0.0, 0.00872665, 0.0, 0.0, 0.0, 0.00872665)",-0.649935424328,0.0854013562202,-1.51998317242,"(0.000872665, 0.0, 0.0, 0.0, 0.000872665, 0.0, 0.0, 0.0, 0.000872665)",-0.264936573766,-0.803275502846,-0.674855809808,"(0.003, 0.0, 0.0, 0.0, 0.003, 0.0, 0.0, 0.0, 0.003)"
2021/11/08/17:20:16.602815,59840,1636388416,602542442,imu_iphone,-0.0240731170973,-0.0401052756404,-0.302722272983,0.951930290168,"(0.00872665, 0.0, 0.0, 0.0, 0.00872665, 0.0, 0.0, 0.0, 0.00872665)",-0.643181920052,0.0569552630186,-1.57051181793,"(0.000872665, 0.0, 0.0, 0.0, 0.000872665, 0.0, 0.0, 0.0, 0.000872665)",-0.206223164778,-0.963721711636,-0.678655330539,"(0.003, 0.0, 0.0, 0.0, 0.003, 0.0, 0.0, 0.0, 0.003)"
2021/11/08/17:20:16.665574,59841,1636388416,664627065,imu_iphone,-0.0295655332325,-0.047423822775,-0.325369857451,0.94393395751,"(0.00872665, 0.0, 0.0, 0.0, 0.00872665, 0.0, 0.0, 0.0, 0.00872665)",-0.634075820446,0.0278074666858,-1.58446764946,"(0.000872665, 0.0, 0.0, 0.0, 0.000872665, 0.0, 0.0, 0.0, 0.000872665)",-0.141985087171,-1.10355129585,-0.685178484321,"(0.003, 0.0, 0.0, 0.0, 0.003, 0.0, 0.0, 0.0, 0.003)"
2021/11/08/17:20:16.671253,59842,1636388416,668499515,imu_iphone,-0.0361424657855,-0.0540240500251,-0.34794607707,0.935258601477,"(0.00872665, 0.0, 0.0, 0.0, 0.00872665, 0.0, 0.0, 0.0, 0.00872665)",-0.632388949394,0.0035118162632,-1.56891548634,"(0.000872665, 0.0, 0.0, 0.0, 0.000872665, 0.0, 0.0, 0.0, 0.000872665)",-0.0642547238991,-1.25333079457,-0.704698829055,"(0.003, 0.0, 0.0, 0.0, 0.003, 0.0, 0.0, 0.0, 0.003)"
2021/11/08/17:20:16.692445,59843,1636388416,691876139,imu_iphone,-0.0436455293106,-0.05990518012,-0.369982428318,0.926077448112,"(0.00872665, 0.0, 0.0, 0.0, 0.00872665, 0.0, 0.0, 0.0, 0.00872665)",-0.628472447395,-0.0219080299139,-1.52006494999,"(0.000872665, 0.0, 0.0, 0.0, 0.000872665, 0.0, 0.0, 0.0, 0.000872665)",0.0129858254269,-1.40468173251,-0.690671358705,"(0.003, 0.0, 0.0, 0.0, 0.003, 0.0, 0.0, 0.0, 0.003)"
2021/11/08/17:20:16.722660,59844,1636388416,722099293,imu_iphone,-0.0518962419195,-0.0650736461278,-0.39110440941,0.916574896882,"(0.00872665, 0.0, 0.0, 0.0, 0.00872665, 0.0, 0.0, 0.0, 0.00872665)",-0.622582614422,-0.0465305782855,-1.44590222836,"(0.000872665, 0.0, 0.0, 0.0, 0.000872665, 0.0, 0.0, 0.0, 0.000872665)",0.0845459143817,-1.58088055953,-0.687675830126,"(0.003, 0.0, 0.0, 0.0, 0.003, 0.0, 0.0, 0.0, 0.003)"
2021/11/08/17:20:16.773726,59845,1636388416,773360729,imu_iphone,-0.0607162712028,-0.0695500814256,-0.41103916395,0.906930607204,"(0.00872665, 0.0, 0.0, 0.0, 0.00872665, 0.0, 0.0, 0.0, 0.00872665)",-0.619111716747,-0.0705212727189,-1.35780024529,"(0.000872665, 0.0, 0.0, 0.0, 0.000872665, 0.0, 0.0, 0.0, 0.000872665)",0.183888573423,-1.77602261111,-0.694587823749,"(0.003, 0.0, 0.0, 0.0, 0.003, 0.0, 0.0, 0.0, 0.003)"
2021/11/08/17:20:16.782429,59846,1636388416,781567324,imu_iphone,-0.0699454286105,-0.0733376954523,-0.429666427096,0.89728255353,"(0.00872665, 0.0, 0.0, 0.0, 0.00872665, 0.0, 0.0, 0.0, 0.00872665)",-0.604362845421,-0.0921669900417,-1.2597386837,"(0.000872665, 0.0, 0.0, 0.0, 0.000872665, 0.0, 0.0, 0.0, 0.000872665)",0.278122373968,-2.00661881626,-0.685605915785,"(0.003, 0.0, 0.0, 0.0, 0.003, 0.0, 0.0, 0.0, 0.003)"
2021/11/08/17:20:16.812161,59847,1636388416,811261105,imu_iphone,-0.0793492684157,-0.0763800088221,-0.446882831725,0.887786867758,"(0.00872665, 0.0, 0.0, 0.0, 0.00872665, 0.0, 0.0, 0.0, 0.00872665)",-0.579549193382,-0.106873109937,-1.1638674736,"(0.000872665, 0.0, 0.0, 0.0, 0.000872665, 0.0, 0.0, 0.0, 0.000872665)",0.395705933869,-2.26803452566,-0.663110507727,"(0.003, 0.0, 0.0, 0.0, 0.003, 0.0, 0.0, 0.0, 0.003)"
2021/11/08/17:20:16.873433,59848,1636388416,872423062,imu_iphone,-0.0887439432198,-0.0785696622378,-0.462979411563,0.878408438704,"(0.00872665, 0.0, 0.0, 0.0, 0.00872665, 0.0, 0.0, 0.0, 0.00872665)",-0.54088896513,-0.122277759016,-1.09953284264,"(0.000872665, 0.0, 0.0, 0.0, 0.000872665, 0.0, 0.0, 0.0, 0.000872665)",0.507686545551,-2.54536723316,-0.683087520003,"(0.003, 0.0, 0.0, 0.0, 0.003, 0.0, 0.0, 0.0, 0.003)"
2021/11/08/17:20:16.877554,59849,1636388416,876985409,imu_iphone,-0.097924159944,-0.0798130498718,-0.478091077787,0.869177575246,"(0.00872665, 0.0, 0.0, 0.0, 0.00872665, 0.0, 0.0, 0.0, 0.00872665)",-0.490885108709,-0.126307830215,-1.02500760555,"(0.000872665, 0.0, 0.0, 0.0, 0.000872665, 0.0, 0.0, 0.0, 0.000872665)",0.658414535746,-2.797089867,-0.621628605723,"(0.003, 0.0, 0.0, 0.0, 0.003, 0.0, 0.0, 0.0, 0.003)"
2021/11/08/17:20:16.901355,59850,1636388416,900591867,imu_iphone,-0.106637604656,-0.0800292119531,-0.492275035602,0.860168027673,"(0.00872665, 0.0, 0.0, 0.0, 0.00872665, 0.0, 0.0, 0.0, 0.00872665)",-0.426127135754,-0.125215172768,-0.972327172756,"(0.000872665, 0.0, 0.0, 0.0, 0.000872665, 0.0, 0.0, 0.0, 0.000872665)",0.805022650883,-3.02108325005,-0.565968375206,"(0.003, 0.0, 0.0, 0.0, 0.003, 0.0, 0.0, 0.0, 0.003)"
2021/11/08/17:20:16.930705,59851,1636388416,930139217,imu_iphone,-0.114623496785,-0.079189685274,-0.505630310191,0.851427294105,"(0.00872665, 0.0, 0.0, 0.0, 0.00872665, 0.0, 0.0, 0.0, 0.00872665)",-0.35415583849,-0.115879841149,-0.924372017384,"(0.000872665, 0.0, 0.0, 0.0, 0.000872665, 0.0, 0.0, 0.0, 0.000872665)",0.990275598988,-3.24854286253,-0.509547421932,"(0.003, 0.0, 0.0, 0.0, 0.003, 0.0, 0.0, 0.0, 0.003)"
2021/11/08/17:20:16.976070,59852,1636388416,975813025,imu_iphone,-0.121640315859,-0.0773096520249,-0.518183557953,0.843037752137,"(0.00872665, 0.0, 0.0, 0.0, 0.00872665, 0.0, 0.0, 0.0, 0.00872665)",-0.266110867262,-0.0932912528515,-0.878311634064,"(0.000872665, 0.0, 0.0, 0.0, 0.000872665, 0.0, 0.0, 0.0, 0.000872665)",1.14156579897,-3.37283771038,-0.440650264621,"(0.003, 0.0, 0.0, 0.0, 0.003, 0.0, 0.0, 0.0, 0.003)"
2021/11/08/17:20:16.989865,59853,1636388416,989598188,imu_iphone,-0.127438169132,-0.0745265824954,-0.52982154107,0.835161323439,"(0.00872665, 0.0, 0.0, 0.0, 0.00872665, 0.0, 0.0, 0.0, 0.00872665)",-0.178387910128,-0.0684821158648,-0.823963820934,"(0.000872665, 0.0, 0.0, 0.0, 0.000872665, 0.0, 0.0, 0.0, 0.000872665)",1.29551056176,-3.46590199471,-0.390039689541,"(0.003, 0.0, 0.0, 0.0, 0.003, 0.0, 0.0, 0.0, 0.003)"
2021/11/08/17:20:17.022692,59854,1636388417,22360531,imu_iphone,-0.131809385597,-0.0710566014401,-0.540388278667,0.827984150536,"(0.00872665, 0.0, 0.0, 0.0, 0.00872665, 0.0, 0.0, 0.0, 0.00872665)",-0.08711604774,-0.036369021982,-0.755907833576,"(0.000872665, 0.0, 0.0, 0.0, 0.000872665, 0.0, 0.0, 0.0, 0.000872665)",1.4218570514,-3.47344987303,-0.370029348135,"(0.003, 0.0, 0.0, 0.0, 0.003, 0.0, 0.0, 0.0, 0.003)"
2021/11/08/17:20:17.083651,59855,1636388417,82648415,imu_iphone,-0.134649124174,-0.0671558326145,-0.549689446185,0.821706285882,"(0.00872665, 0.0, 0.0, 0.0, 0.00872665, 0.0, 0.0, 0.0, 0.00872665)",-0.0039801299572,0.0047898972407,-0.67229282856,"(0.000872665, 0.0, 0.0, 0.0, 0.000872665, 0.0, 0.0, 0.0, 0.000872665)",1.50041468605,-3.42041504234,-0.344809137583,"(0.003, 0.0, 0.0, 0.0, 0.003, 0.0, 0.0, 0.0, 0.003)"
2021/11/08/17:20:17.092634,59856,1636388417,91936752,imu_iphone,-0.135888160631,-0.0631679892957,-0.557495829518,0.816543087044,"(0.00872665, 0.0, 0.0, 0.0, 0.00872665, 0.0, 0.0, 0.0, 0.00872665)",0.0728845596313,0.0451011694968,-0.566507220268,"(0.000872665, 0.0, 0.0, 0.0, 0.000872665, 0.0, 0.0, 0.0, 0.000872665)",1.53666493803,-3.334951846,-0.353912667632,"(0.003, 0.0, 0.0, 0.0, 0.003, 0.0, 0.0, 0.0, 0.003)"
2021/11/08/17:20:17.108974,59857,1636388417,107885936,imu_iphone,-0.135552109952,-0.0593760511017,-0.563551129686,0.812717807282,"(0.00872665, 0.0, 0.0, 0.0, 0.00872665, 0.0, 0.0, 0.0, 0.00872665)",0.145533159375,0.0830941870809,-0.434264391661,"(0.000872665, 0.0, 0.0, 0.0, 0.000872665, 0.0, 0.0, 0.0, 0.000872665)",1.53951340914,-3.21167149007,-0.380428036451,"(0.003, 0.0, 0.0, 0.0, 0.003, 0.0, 0.0, 0.0, 0.003)"
2021/11/08/17:20:17.140246,59858,1636388417,139272064,imu_iphone,-0.133713403175,-0.0560704353009,-0.567569725293,0.810457549182,"(0.00872665, 0.0, 0.0, 0.0, 0.00872665, 0.0, 0.0, 0.0, 0.00872665)",0.206794455647,0.119450964034,-0.271635711193,"(0.000872665, 0.0, 0.0, 0.0, 0.000872665, 0.0, 0.0, 0.0, 0.000872665)",1.49537877157,-3.05926936895,-0.403792340755,"(0.003, 0.0, 0.0, 0.0, 0.003, 0.0, 0.0, 0.0, 0.003)"
2021/11/08/17:20:17.189291,59859,1636388417,188480924,imu_iphone,-0.130517936318,-0.0534182419432,-0.569326445768,0.809925279194,"(0.00872665, 0.0, 0.0, 0.0, 0.00872665, 0.0, 0.0, 0.0, 0.00872665)",0.262852281332,0.147066324949,-0.0929749161005,"(0.000872665, 0.0, 0.0, 0.0, 0.000872665, 0.0, 0.0, 0.0, 0.000872665)",1.41745819107,-2.93066716969,-0.441853621602,"(0.003, 0.0, 0.0, 0.0, 0.003, 0.0, 0.0, 0.0, 0.003)"
2021/11/08/17:20:17.199660,59860,1636388417,198881675,imu_iphone,-0.126061014564,-0.0514647000768,-0.568621664296,0.811251753863,"(0.00872665, 0.0, 0.0, 0.0, 0.00872665, 0.0, 0.0, 0.0, 0.00872665)",0.316237330437,0.171610474586,0.100804887712,"(0.000872665, 0.0, 0.0, 0.0, 0.000872665, 0.0, 0.0, 0.0, 0.000872665)",1.36241922721,-2.81156464934,-0.452070461512,"(0.003, 0.0, 0.0, 0.0, 0.003, 0.0, 0.0, 0.0, 0.003)"
2021/11/08/17:20:17.229709,59861,1636388417,228205759,imu_iphone,-0.120446901722,-0.0501912318016,-0.565325652667,0.81448160848,"(0.00872665, 0.0, 0.0, 0.0, 0.00872665, 0.0, 0.0, 0.0, 0.00872665)",0.36744505167,0.1892606318,0.302677899599,"(0.000872665, 0.0, 0.0, 0.0, 0.000872665, 0.0, 0.0, 0.0, 0.000872665)",1.28108182624,-2.69456478775,-0.495276707411,"(0.003, 0.0, 0.0, 0.0, 0.003, 0.0, 0.0, 0.0, 0.003)"
2021/11/08/17:20:17.290543,59862,1636388417,290144779,imu_iphone,-0.113754049121,-0.0493833662919,-0.559526353825,0.819482494516,"(0.00872665, 0.0, 0.0, 0.0, 0.00872665, 0.0, 0.0, 0.0, 0.00872665)",0.415747255087,0.204773798585,0.494233459234,"(0.000872665, 0.0, 0.0, 0.0, 0.000872665, 0.0, 0.0, 0.0, 0.000872665)",1.18085952669,-2.57986258954,-0.511593947411,"(0.003, 0.0, 0.0, 0.0, 0.003, 0.0, 0.0, 0.0, 0.003)"
2021/11/08/17:20:17.293938,59863,1636388417,293600637,imu_iphone,-0.106094701358,-0.0487960292006,-0.551338343404,0.826068334323,"(0.00872665, 0.0, 0.0, 0.0, 0.00872665, 0.0, 0.0, 0.0, 0.00872665)",0.470392644405,0.218614712358,0.669088244438,"(0.000872665, 0.0, 0.0, 0.0, 0.000872665, 0.0, 0.0, 0.0, 0.000872665)",1.06504928112,-2.44311419562,-0.569632240534,"(0.003, 0.0, 0.0, 0.0, 0.003, 0.0, 0.0, 0.0, 0.003)"
2021/11/08/17:20:17.317986,59864,1636388417,317345711,imu_iphone,-0.0975544708601,-0.048115228838,-0.540948862452,0.833991833402,"(0.00872665, 0.0, 0.0, 0.0, 0.00872665, 0.0, 0.0, 0.0, 0.00872665)",0.520572960377,0.23074734211,0.830454826355,"(0.000872665, 0.0, 0.0, 0.0, 0.000872665, 0.0, 0.0, 0.0, 0.000872665)",0.942655801624,-2.27639838293,-0.603520363569,"(0.003, 0.0, 0.0, 0.0, 0.003, 0.0, 0.0, 0.0, 0.003)"
2021/11/08/17:20:17.349243,59865,1636388417,348161529,imu_iphone,-0.0882992218725,-0.0470522427601,-0.528588742171,0.842961016606,"(0.00872665, 0.0, 0.0, 0.0, 0.00872665, 0.0, 0.0, 0.0, 0.00872665)",0.570845067501,0.234204441309,0.966038882732,"(0.000872665, 0.0, 0.0, 0.0, 0.000872665, 0.0, 0.0, 0.0, 0.000872665)",0.820911363065,-2.09794530809,-0.639787133932,"(0.003, 0.0, 0.0, 0.0, 0.003, 0.0, 0.0, 0.0, 0.003)"
2021/11/08/17:20:17.402093,59866,1636388417,401765340,imu_iphone,-0.0785617678024,-0.0452935666626,-0.514750214783,0.85253079583,"(0.00872665, 0.0, 0.0, 0.0, 0.00872665, 0.0, 0.0, 0.0, 0.00872665)",0.615848481655,0.230482518673,1.05808544159,"(0.000872665, 0.0, 0.0, 0.0, 0.000872665, 0.0, 0.0, 0.0, 0.000872665)",0.644677891284,-1.89442229614,-0.700971813798,"(0.003, 0.0, 0.0, 0.0, 0.003, 0.0, 0.0, 0.0, 0.003)"
2021/11/08/17:20:17.406720,59867,1636388417,406429096,imu_iphone,-0.0685546681331,-0.0427676350674,-0.499361622576,0.862617619091,"(0.00872665, 0.0, 0.0, 0.0, 0.00872665, 0.0, 0.0, 0.0, 0.00872665)",0.648905575275,0.226459264755,1.17777383327,"(0.000872665, 0.0, 0.0, 0.0, 0.000872665, 0.0, 0.0, 0.0, 0.000872665)",0.510571707934,-1.61672574565,-0.702450574636,"(0.003, 0.0, 0.0, 0.0, 0.003, 0.0, 0.0, 0.0, 0.003)"
2021/11/08/17:20:17.436570,59868,1636388417,436338686,imu_iphone,-0.0585628034862,-0.0393318549189,-0.482604240868,0.872992869348,"(0.00872665, 0.0, 0.0, 0.0, 0.00872665, 0.0, 0.0, 0.0, 0.00872665)",0.676322937012,0.208171993494,1.26770627499,"(0.000872665, 0.0, 0.0, 0.0, 0.000872665, 0.0, 0.0, 0.0, 0.000872665)",0.33695954293,-1.33701760679,-0.707173370719,"(0.003, 0.0, 0.0, 0.0, 0.003, 0.0, 0.0, 0.0, 0.003)"
2021/11/08/17:20:17.498270,59869,1636388417,497847369,imu_iphone,-0.0489292274355,-0.0349846399278,-0.464630668666,0.883459307159,"(0.00872665, 0.0, 0.0, 0.0, 0.00872665, 0.0, 0.0, 0.0, 0.00872665)",0.689429044724,0.186465978622,1.35715150833,"(0.000872665, 0.0, 0.0, 0.0, 0.000872665, 0.0, 0.0, 0.0, 0.000872665)",0.19478635814,-1.03867519565,-0.691893426776,"(0.003, 0.0, 0.0, 0.0, 0.003, 0.0, 0.0, 0.0, 0.003)"
2021/11/08/17:20:17.501567,59870,1636388417,501294994,imu_iphone,-0.0398921079975,-0.0297984478814,-0.445442627236,0.893924794412,"(0.00872665, 0.0, 0.0, 0.0, 0.00872665, 0.0, 0.0, 0.0, 0.00872665)",0.694256842136,0.155880331993,1.44115138054,"(0.000872665, 0.0, 0.0, 0.0, 0.000872665, 0.0, 0.0, 0.0, 0.000872665)",0.0498929024488,-0.748524587452,-0.686617484093,"(0.003, 0.0, 0.0, 0.0, 0.003, 0.0, 0.0, 0.0, 0.003)"
2021/11/08/17:20:17.526479,59871,1636388417,526149847,imu_iphone,-0.0317602861346,-0.0238199440734,-0.425052763998,0.904297540805,"(0.00872665, 0.0, 0.0, 0.0, 0.00872665, 0.0, 0.0, 0.0, 0.00872665)",0.685784757137,0.1205432266,1.52497172356,"(0.000872665, 0.0, 0.0, 0.0, 0.000872665, 0.0, 0.0, 0.0, 0.000872665)",-0.0400547428429,-0.459061684906,-0.625785976052,"(0.003, 0.0, 0.0, 0.0, 0.003, 0.0, 0.0, 0.0, 0.003)"
2021/11/08/17:20:17.556109,59872,1636388417,555802247,imu_iphone,-0.024707517994,-0.017223027293,-0.40343119429,0.914514175592,"(0.00872665, 0.0, 0.0, 0.0, 0.00872665, 0.0, 0.0, 0.0, 0.00872665)",0.668671786785,0.0831963792443,1.60091388226,"(0.000872665, 0.0, 0.0, 0.0, 0.000872665, 0.0, 0.0, 0.0, 0.000872665)",-0.119917293303,-0.181568069346,-0.59649376452,"(0.003, 0.0, 0.0, 0.0, 0.003, 0.0, 0.0, 0.0, 0.003)"
2021/11/08/17:20:17.602882,59873,1636388417,602392637,imu_iphone,-0.0189555180813,-0.010152252542,-0.380722733366,0.924439192376,"(0.00872665, 0.0, 0.0, 0.0, 0.00872665, 0.0, 0.0, 0.0, 0.00872665)",0.648565471172,0.0478036999702,1.66220629215,"(0.000872665, 0.0, 0.0, 0.0, 0.000872665, 0.0, 0.0, 0.0, 0.000872665)",-0.147715559509,0.0405586631969,-0.558129597902,"(0.003, 0.0, 0.0, 0.0, 0.003, 0.0, 0.0, 0.0, 0.003)"
2021/11/08/17:20:17.615983,59874,1636388417,615665054,imu_iphone,-0.0145924448779,-0.00280341372024,-0.357151910602,0.933928109748,"(0.00872665, 0.0, 0.0, 0.0, 0.00872665, 0.0, 0.0, 0.0, 0.00872665)",0.616913795471,0.0115210367367,1.69601535797,"(0.000872665, 0.0, 0.0, 0.0, 0.000872665, 0.0, 0.0, 0.0, 0.000872665)",-0.172733401582,0.265955177005,-0.531834669113,"(0.003, 0.0, 0.0, 0.0, 0.003, 0.0, 0.0, 0.0, 0.003)"
2021/11/08/17:20:17.645548,59875,1636388417,645234060,imu_iphone,-0.0116595409539,0.00460475952075,-0.332940629814,0.942864459142,"(0.00872665, 0.0, 0.0, 0.0, 0.00872665, 0.0, 0.0, 0.0, 0.00872665)",0.581320345402,-0.0215945020318,1.71655845642,"(0.000872665, 0.0, 0.0, 0.0, 0.000872665, 0.0, 0.0, 0.0, 0.000872665)",-0.15524706563,0.463924448714,-0.482835586667,"(0.003, 0.0, 0.0, 0.0, 0.003, 0.0, 0.0, 0.0, 0.003)"
2021/11/08/17:20:17.708580,59876,1636388417,708186875,imu_iphone,-0.0100871014246,0.0119231171733,-0.308468799469,0.951106245072,"(0.00872665, 0.0, 0.0, 0.0, 0.00872665, 0.0, 0.0, 0.0, 0.00872665)",0.547433972359,-0.0467777177691,1.70218205452,"(0.000872665, 0.0, 0.0, 0.0, 0.000872665, 0.0, 0.0, 0.0, 0.000872665)",-0.125205588229,0.629522200674,-0.440978293419,"(0.003, 0.0, 0.0, 0.0, 0.003, 0.0, 0.0, 0.0, 0.003)"
2021/11/08/17:20:17.712314,59877,1636388417,712045899,imu_iphone,-0.00975950813954,0.0189807002826,-0.284218640879,0.958521908562,"(0.00872665, 0.0, 0.0, 0.0, 0.00872665, 0.0, 0.0, 0.0, 0.00872665)",0.510871767998,-0.0714748054743,1.65241134167,"(0.000872665, 0.0, 0.0, 0.0, 0.000872665, 0.0, 0.0, 0.0, 0.000872665)",-0.0885817539878,0.758933727667,-0.386900904179,"(0.003, 0.0, 0.0, 0.0, 0.003, 0.0, 0.0, 0.0, 0.003)"
2021/11/08/17:20:17.735311,59878,1636388417,734845654,imu_iphone,-0.0105147479559,0.0256261159573,-0.260638376845,0.965039055568,"(0.00872665, 0.0, 0.0, 0.0, 0.00872665, 0.0, 0.0, 0.0, 0.00872665)",0.474083781242,-0.0870603770018,1.57544767857,"(0.000872665, 0.0, 0.0, 0.0, 0.000872665, 0.0, 0.0, 0.0, 0.000872665)",-0.0391506171227,0.883198243082,-0.368917792439,"(0.003, 0.0, 0.0, 0.0, 0.003, 0.0, 0.0, 0.0, 0.003)"
2021/11/08/17:20:17.765879,59879,1636388417,765102071,imu_iphone,-0.0121559516849,0.0318037241049,-0.238203116931,0.970618375602,"(0.00872665, 0.0, 0.0, 0.0, 0.00872665, 0.0, 0.0, 0.0, 0.00872665)",0.439766526222,-0.102182142437,1.46836388111,"(0.000872665, 0.0, 0.0, 0.0, 0.000872665, 0.0, 0.0, 0.0, 0.000872665)",0.0120434735343,0.993270323575,-0.326911395192,"(0.003, 0.0, 0.0, 0.0, 0.003, 0.0, 0.0, 0.0, 0.003)"
2021/11/08/17:20:17.813496,59880,1636388417,813262924,imu_iphone,-0.0144116605518,0.037458492184,-0.217408931514,0.975255106063,"(0.00872665, 0.0, 0.0, 0.0, 0.00872665, 0.0, 0.0, 0.0, 0.00872665)",0.405386477709,-0.109653368592,1.32845914364,"(0.000872665, 0.0, 0.0, 0.0, 0.000872665, 0.0, 0.0, 0.0, 0.000872665)",0.0729951784015,1.08593107693,-0.289817243814,"(0.003, 0.0, 0.0, 0.0, 0.003, 0.0, 0.0, 0.0, 0.003)"
2021/11/08/17:20:17.824280,59881,1636388417,823863549,imu_iphone,-0.0170320500285,0.0425660868181,-0.198694193571,0.978988587761,"(0.00872665, 0.0, 0.0, 0.0, 0.00872665, 0.0, 0.0, 0.0, 0.00872665)",0.368902742863,-0.109563820064,1.16398012638,"(0.000872665, 0.0, 0.0, 0.0, 0.000872665, 0.0, 0.0, 0.0, 0.000872665)",0.138772736527,1.18649719276,-0.243769251108,"(0.003, 0.0, 0.0, 0.0, 0.003, 0.0, 0.0, 0.0, 0.003)"
2021/11/08/17:20:17.855070,59882,1636388417,854625419,imu_iphone,-0.0198111051624,0.0471250435105,-0.182341047552,0.981905541671,"(0.00872665, 0.0, 0.0, 0.0, 0.00872665, 0.0, 0.0, 0.0, 0.00872665)",0.333941698074,-0.107340037823,0.989510953426,"(0.000872665, 0.0, 0.0, 0.0, 0.000872665, 0.0, 0.0, 0.0, 0.000872665)",0.198632912412,1.29219255924,-0.203954390287,"(0.003, 0.0, 0.0, 0.0, 0.003, 0.0, 0.0, 0.0, 0.003)"
2021/11/08/17:20:17.918270,59883,1636388417,917912276,imu_iphone,-0.0225144718628,0.0511592289938,-0.168619036036,0.984095245661,"(0.00872665, 0.0, 0.0, 0.0, 0.00872665, 0.0, 0.0, 0.0, 0.00872665)",0.295646160841,-0.102124348283,0.802809119225,"(0.000872665, 0.0, 0.0, 0.0, 0.000872665, 0.0, 0.0, 0.0, 0.000872665)",0.267458148971,1.40187974676,-0.17940076232,"(0.003, 0.0, 0.0, 0.0, 0.003, 0.0, 0.0, 0.0, 0.003)"
2021/11/08/17:20:17.921961,59884,1636388417,921623797,imu_iphone,-0.0249460574529,0.0546604473212,-0.15766545665,0.985662991846,"(0.00872665, 0.0, 0.0, 0.0, 0.00872665, 0.0, 0.0, 0.0, 0.00872665)",0.251887261868,-0.0901586785913,0.613686680794,"(0.000872665, 0.0, 0.0, 0.0, 0.000872665, 0.0, 0.0, 0.0, 0.000872665)",0.323991807327,1.50694909573,-0.135644878149,"(0.003, 0.0, 0.0, 0.0, 0.003, 0.0, 0.0, 0.0, 0.003)"
2021/11/08/17:20:17.943659,59885,1636388417,943214600,imu_iphone,-0.0269651199128,0.05762859601,-0.149540503336,0.986706372277,"(0.00872665, 0.0, 0.0, 0.0, 0.00872665, 0.0, 0.0, 0.0, 0.00872665)",0.204864323139,-0.0716490000486,0.427080512047,"(0.000872665, 0.0, 0.0, 0.0, 0.000872665, 0.0, 0.0, 0.0, 0.000872665)",0.386636902392,1.61447588325,-0.110710011721,"(0.003, 0.0, 0.0, 0.0, 0.003, 0.0, 0.0, 0.0, 0.003)"
2021/11/08/17:20:17.973534,59886,1636388417,973166171,imu_iphone,-0.0284589059464,0.0600021316741,-0.144177329145,0.987320987637,"(0.00872665, 0.0, 0.0, 0.0, 0.00872665, 0.0, 0.0, 0.0, 0.00872665)",0.153729766607,-0.0589459910989,0.250280976295,"(0.000872665, 0.0, 0.0, 0.0, 0.000872665, 0.0, 0.0, 0.0, 0.000872665)",0.439451146871,1.72412725657,-0.0625769019127,"(0.003, 0.0, 0.0, 0.0, 0.003, 0.0, 0.0, 0.0, 0.003)"
2021/11/08/17:20:18.021020,59887,1636388418,20678571,imu_iphone,-0.0293508146862,0.0617163139104,-0.141431980659,0.987586260092,"(0.00872665, 0.0, 0.0, 0.0, 0.00872665, 0.0, 0.0, 0.0, 0.00872665)",0.0951351672411,-0.0356262885034,0.0877370610833,"(0.000872665, 0.0, 0.0, 0.0, 0.000872665, 0.0, 0.0, 0.0, 0.000872665)",0.477715837732,1.82003065646,-0.0384933900833,"(0.003, 0.0, 0.0, 0.0, 0.003, 0.0, 0.0, 0.0, 0.003)"
2021/11/08/17:20:18.032766,59888,1636388418,32462724,imu_iphone,-0.0296273547627,0.0626556322468,-0.141078896163,0.987569357896,"(0.00872665, 0.0, 0.0, 0.0, 0.00872665, 0.0, 0.0, 0.0, 0.00872665)",0.0241111107171,-0.0118594132364,-0.0511198714375,"(0.000872665, 0.0, 0.0, 0.0, 0.000872665, 0.0, 0.0, 0.0, 0.000872665)",0.516970900744,1.91219330013,0.00724411547184,"(0.003, 0.0, 0.0, 0.0, 0.003, 0.0, 0.0, 0.0, 0.003)"
2021/11/08/17:20:18.063414,59889,1636388418,63151975,imu_iphone,-0.0293361330454,0.0626603144753,-0.142700068516,0.987344806404,"(0.00872665, 0.0, 0.0, 0.0, 0.00872665, 0.0, 0.0, 0.0, 0.00872665)",-0.0460733063519,0.0123351383954,-0.161262080073,"(0.000872665, 0.0, 0.0, 0.0, 0.000872665, 0.0, 0.0, 0.0, 0.000872665)",0.543292288184,1.96666713059,0.0196940070391,"(0.003, 0.0, 0.0, 0.0, 0.003, 0.0, 0.0, 0.0, 0.003)"
2021/11/08/17:20:18.129177,59890,1636388418,128949717,imu_iphone,-0.0284094070892,0.0597100673255,-0.146068328724,0.987062134211,"(0.00872665, 0.0, 0.0, 0.0, 0.00872665, 0.0, 0.0, 0.0, 0.00872665)",-0.123263478279,0.0376408360898,-0.245616585016,"(0.000872665, 0.0, 0.0, 0.0, 0.000872665, 0.0, 0.0, 0.0, 0.000872665)",0.556793728396,1.91603901386,0.0218399351835,"(0.003, 0.0, 0.0, 0.0, 0.003, 0.0, 0.0, 0.0, 0.003)"
2021/11/08/17:20:18.134860,59891,1636388418,134616775,imu_iphone,-0.0270654562772,0.0547392369392,-0.15069932208,0.986691842137,"(0.00872665, 0.0, 0.0, 0.0, 0.00872665, 0.0, 0.0, 0.0, 0.00872665)",-0.198264032602,0.0659474506974,-0.304249644279,"(0.000872665, 0.0, 0.0, 0.0, 0.000872665, 0.0, 0.0, 0.0, 0.000872665)",0.536715778559,1.79517092675,0.00871819853783,"(0.003, 0.0, 0.0, 0.0, 0.003, 0.0, 0.0, 0.0, 0.003)"
2021/11/08/17:20:18.154031,59892,1636388418,152957647,imu_iphone,-0.0255200144366,0.0487345825679,-0.156063340797,0.98621392354,"(0.00872665, 0.0, 0.0, 0.0, 0.00872665, 0.0, 0.0, 0.0, 0.00872665)",-0.270518034697,0.0890798419714,-0.33792117238,"(0.000872665, 0.0, 0.0, 0.0, 0.000872665, 0.0, 0.0, 0.0, 0.000872665)",0.503363625929,1.62646618366,-0.0303371089697,"(0.003, 0.0, 0.0, 0.0, 0.003, 0.0, 0.0, 0.0, 0.003)"
2021/11/08/17:20:18.181461,59893,1636388418,181195574,imu_iphone,-0.0238675442074,0.0426846652842,-0.161982279608,0.985581098021,"(0.00872665, 0.0, 0.0, 0.0, 0.00872665, 0.0, 0.0, 0.0, 0.00872665)",-0.334856927395,0.112163826823,-0.376424372196,"(0.000872665, 0.0, 0.0, 0.0, 0.000872665, 0.0, 0.0, 0.0, 0.000872665)",0.425042657331,1.44440026045,-0.0894355022907,"(0.003, 0.0, 0.0, 0.0, 0.003, 0.0, 0.0, 0.0, 0.003)"
2021/11/08/17:20:18.228709,59894,1636388418,228433870,imu_iphone,-0.0222281197373,0.0374459371184,-0.168407176972,0.98475516512,"(0.00872665, 0.0, 0.0, 0.0, 0.00872665, 0.0, 0.0, 0.0, 0.00872665)",-0.393909364939,0.133127301931,-0.421252131462,"(0.000872665, 0.0, 0.0, 0.0, 0.000872665, 0.0, 0.0, 0.0, 0.000872665)",0.338540264592,1.26960637316,-0.147675524354,"(0.003, 0.0, 0.0, 0.0, 0.003, 0.0, 0.0, 0.0, 0.003)"
2021/11/08/17:20:18.241345,59895,1636388418,240922575,imu_iphone,-0.020589517704,0.0313705808918,-0.175440865787,0.98377459869,"(0.00872665, 0.0, 0.0, 0.0, 0.00872665, 0.0, 0.0, 0.0, 0.00872665)",-0.446236371994,0.142929822206,-0.457942306995,"(0.000872665, 0.0, 0.0, 0.0, 0.000872665, 0.0, 0.0, 0.0, 0.000872665)",0.252868907377,1.06288420334,-0.221921714544,"(0.003, 0.0, 0.0, 0.0, 0.003, 0.0, 0.0, 0.0, 0.003)"
2021/11/08/17:20:18.272059,59896,1636388418,271385174,imu_iphone,-0.0190372839411,0.0245858658255,-0.183168691549,0.98258961294,"(0.00872665, 0.0, 0.0, 0.0, 0.00872665, 0.0, 0.0, 0.0, 0.00872665)",-0.486058264971,0.150333017111,-0.520070791245,"(0.000872665, 0.0, 0.0, 0.0, 0.000872665, 0.0, 0.0, 0.0, 0.000872665)",0.139670686126,0.86944676131,-0.273291258216,"(0.003, 0.0, 0.0, 0.0, 0.003, 0.0, 0.0, 0.0, 0.003)"
2021/11/08/17:20:18.332395,59897,1636388418,332084564,imu_iphone,-0.0176974262495,0.0172389844765,-0.191662233631,0.981149940997,"(0.00872665, 0.0, 0.0, 0.0, 0.00872665, 0.0, 0.0, 0.0, 0.00872665)",-0.516904175282,0.153259962797,-0.570927977562,"(0.000872665, 0.0, 0.0, 0.0, 0.000872665, 0.0, 0.0, 0.0, 0.000872665)",0.0637643617764,0.593871032484,-0.326172307134,"(0.003, 0.0, 0.0, 0.0, 0.003, 0.0, 0.0, 0.0, 0.003)"
2021/11/08/17:20:18.335198,59898,1636388418,335036203,imu_iphone,-0.0166556617835,0.00950188438314,-0.201249884162,0.979352228388,"(0.00872665, 0.0, 0.0, 0.0, 0.00872665, 0.0, 0.0, 0.0, 0.00872665)",-0.541571617126,0.150278016925,-0.663910627365,"(0.000872665, 0.0, 0.0, 0.0, 0.000872665, 0.0, 0.0, 0.0, 0.000872665)",-0.0476525783166,0.344938689955,-0.378442322016,"(0.003, 0.0, 0.0, 0.0, 0.003, 0.0, 0.0, 0.0, 0.003)"
2021/11/08/17:20:18.360571,59899,1636388418,359989020,imu_iphone,-0.0160736118407,0.00152916173284,-0.211979565366,0.977140708667,"(0.00872665, 0.0, 0.0, 0.0, 0.00872665, 0.0, 0.0, 0.0, 0.00872665)",-0.560014247894,0.137054860592,-0.752195298672,"(0.000872665, 0.0, 0.0, 0.0, 0.000872665, 0.0, 0.0, 0.0, 0.000872665)",-0.136497365646,0.139697619863,-0.397149903774,"(0.003, 0.0, 0.0, 0.0, 0.003, 0.0, 0.0, 0.0, 0.003)"
2021/11/08/17:20:18.390136,59900,1636388418,389819889,imu_iphone,-0.016063031298,-0.0065395799293,-0.223883649761,0.974461556086,"(0.00872665, 0.0, 0.0, 0.0, 0.00872665, 0.0, 0.0, 0.0, 0.00872665)",-0.568078994751,0.125408798456,-0.841647446156,"(0.000872665, 0.0, 0.0, 0.0, 0.000872665, 0.0, 0.0, 0.0, 0.000872665)",-0.200771604627,-0.112211028524,-0.447482736111,"(0.003, 0.0, 0.0, 0.0, 0.003, 0.0, 0.0, 0.0, 0.003)"
2021/11/08/17:20:18.440444,59901,1636388418,440000184,imu_iphone,-0.0167101427553,-0.0145360367352,-0.236998567926,0.971257511459,"(0.00872665, 0.0, 0.0, 0.0, 0.00872665, 0.0, 0.0, 0.0, 0.00872665)",-0.5659044981,0.110888779163,-0.930315434933,"(0.000872665, 0.0, 0.0, 0.0, 0.000872665, 0.0, 0.0, 0.0, 0.000872665)",-0.226668995842,-0.334491908289,-0.446265930533,"(0.003, 0.0, 0.0, 0.0, 0.003, 0.0, 0.0, 0.0, 0.003)"
2021/11/08/17:20:18.450984,59902,1636388418,450304135,imu_iphone,-0.0180996984573,-0.0223329076385,-0.251346406042,0.967470219863,"(0.00872665, 0.0, 0.0, 0.0, 0.00872665, 0.0, 0.0, 0.0, 0.00872665)",-0.566840708256,0.0955803692341,-1.02094948292,"(0.000872665, 0.0, 0.0, 0.0, 0.000872665, 0.0, 0.0, 0.0, 0.000872665)",-0.234945035242,-0.540567704961,-0.475308465958,"(0.003, 0.0, 0.0, 0.0, 0.003, 0.0, 0.0, 0.0, 0.003)"
2021/11/08/17:20:18.481660,59903,1636388418,480005517,imu_iphone,-0.0202779244474,-0.0298294283649,-0.266853118349,0.963062004344,"(0.00872665, 0.0, 0.0, 0.0, 0.00872665, 0.0, 0.0, 0.0, 0.00872665)",-0.558430552483,0.0765832215548,-1.09926140308,"(0.000872665, 0.0, 0.0, 0.0, 0.000872665, 0.0, 0.0, 0.0, 0.000872665)",-0.229421042707,-0.721745070666,-0.492254866362,"(0.003, 0.0, 0.0, 0.0, 0.003, 0.0, 0.0, 0.0, 0.003)"
2021/11/08/17:20:18.541782,59904,1636388418,541142264,imu_iphone,-0.0232692938584,-0.0369434573192,-0.283306157568,0.958035146541,"(0.00872665, 0.0, 0.0, 0.0, 0.00872665, 0.0, 0.0, 0.0, 0.00872665)",-0.551581025124,0.0600328631699,-1.16421604156,"(0.000872665, 0.0, 0.0, 0.0, 0.000872665, 0.0, 0.0, 0.0, 0.000872665)",-0.194577502906,-0.891563342884,-0.500837409496,"(0.003, 0.0, 0.0, 0.0, 0.003, 0.0, 0.0, 0.0, 0.003)"
2021/11/08/17:20:18.547745,59905,1636388418,546852187,imu_iphone,-0.0270564738776,-0.043612577924,-0.300530691091,0.952390252985,"(0.00872665, 0.0, 0.0, 0.0, 0.00872665, 0.0, 0.0, 0.0, 0.00872665)",-0.538005053997,0.0458826161921,-1.2131986618,"(0.000872665, 0.0, 0.0, 0.0, 0.000872665, 0.0, 0.0, 0.0, 0.000872665)",-0.149306641705,-1.03974004671,-0.511225572824,"(0.003, 0.0, 0.0, 0.0, 0.003, 0.0, 0.0, 0.0, 0.003)"
2021/11/08/17:20:18.570858,59906,1636388418,570192013,imu_iphone,-0.0315776334692,-0.0497618552739,-0.318236530419,0.946177637408,"(0.00872665, 0.0, 0.0, 0.0, 0.00872665, 0.0, 0.0, 0.0, 0.00872665)",-0.532717883587,0.0330924242735,-1.24061346054,"(0.000872665, 0.0, 0.0, 0.0, 0.000872665, 0.0, 0.0, 0.0, 0.000872665)",-0.110393732172,-1.17722643234,-0.534278220534,"(0.003, 0.0, 0.0, 0.0, 0.003, 0.0, 0.0, 0.0, 0.003)"
2021/11/08/17:20:18.607167,59907,1636388418,606611385,imu_iphone,-0.0367795227382,-0.0554073941914,-0.336097611635,0.939476281143,"(0.00872665, 0.0, 0.0, 0.0, 0.00872665, 0.0, 0.0, 0.0, 0.00872665)",-0.527799606323,0.0177460312843,-1.24299716949,"(0.000872665, 0.0, 0.0, 0.0, 0.000872665, 0.0, 0.0, 0.0, 0.000872665)",-0.0526708780602,-1.3114316529,-0.538683512807,"(0.003, 0.0, 0.0, 0.0, 0.003, 0.0, 0.0, 0.0, 0.003)"
2021/11/08/17:20:18.648754,59908,1636388418,646860255,imu_iphone,-0.0425659926528,-0.0605525884726,-0.353810963218,0.932383677788,"(0.00872665, 0.0, 0.0, 0.0, 0.00872665, 0.0, 0.0, 0.0, 0.00872665)",-0.520546197891,0.00474687665701,-1.22128152847,"(0.000872665, 0.0, 0.0, 0.0, 0.000872665, 0.0, 0.0, 0.0, 0.000872665)",0.00731260098517,-1.44735193491,-0.538142060637,"(0.003, 0.0, 0.0, 0.0, 0.003, 0.0, 0.0, 0.0, 0.003)"
2021/11/08/17:20:18.660071,59909,1636388418,659493074,imu_iphone,-0.0488372773149,-0.0652015665058,-0.371059660695,0.925028866725,"(0.00872665, 0.0, 0.0, 0.0, 0.00872665, 0.0, 0.0, 0.0, 0.00872665)",-0.513737380505,-0.0111267538741,-1.18389117718,"(0.000872665, 0.0, 0.0, 0.0, 0.000872665, 0.0, 0.0, 0.0, 0.000872665)",0.0596027522162,-1.58694207564,-0.546039894819,"(0.003, 0.0, 0.0, 0.0, 0.003, 0.0, 0.0, 0.0, 0.003)"
2021/11/08/17:20:18.688147,59910,1636388418,687839485,imu_iphone,-0.0555087629151,-0.0693443525115,-0.38762587539,0.917527285013,"(0.00872665, 0.0, 0.0, 0.0, 0.00872665, 0.0, 0.0, 0.0, 0.00872665)",-0.504944801331,-0.0242626480758,-1.13085794449,"(0.000872665, 0.0, 0.0, 0.0, 0.000872665, 0.0, 0.0, 0.0, 0.000872665)",0.117270222232,-1.74952083707,-0.552372429371,"(0.003, 0.0, 0.0, 0.0, 0.003, 0.0, 0.0, 0.0, 0.003)"
2021/11/08/17:20:18.750787,59911,1636388418,750539517,imu_iphone,-0.0624706077536,-0.0729912943968,-0.403344835452,0.909990460292,"(0.00872665, 0.0, 0.0, 0.0, 0.00872665, 0.0, 0.0, 0.0, 0.00872665)",-0.492041140795,-0.0388258546591,-1.06978595257,"(0.000872665, 0.0, 0.0, 0.0, 0.000872665, 0.0, 0.0, 0.0, 0.000872665)",0.178471785933,-1.93467116654,-0.53975296855,"(0.003, 0.0, 0.0, 0.0, 0.003, 0.0, 0.0, 0.0, 0.003)"
2021/11/08/17:20:18.754714,59912,1636388418,754510318,imu_iphone,-0.0695797671517,-0.0761122710923,-0.418142925799,0.902508765496,"(0.00872665, 0.0, 0.0, 0.0, 0.00872665, 0.0, 0.0, 0.0, 0.00872665)",-0.474218308926,-0.0527919307351,-0.997879743576,"(0.000872665, 0.0, 0.0, 0.0, 0.000872665, 0.0, 0.0, 0.0, 0.000872665)",0.25512458045,-2.1169044663,-0.53676445663,"(0.003, 0.0, 0.0, 0.0, 0.003, 0.0, 0.0, 0.0, 0.003)"
2021/11/08/17:20:18.857071,59913,1636388418,856378084,imu_iphone,-0.0766823416187,-0.0786560246155,-0.431906796866,0.895203645601,"(0.00872665, 0.0, 0.0, 0.0, 0.00872665, 0.0, 0.0, 0.0, 0.00872665)",-0.443496763706,-0.0602579787374,-0.932633519173,"(0.000872665, 0.0, 0.0, 0.0, 0.000872665, 0.0, 0.0, 0.0, 0.000872665)",0.324947096184,-2.30659077331,-0.528795871139,"(0.003, 0.0, 0.0, 0.0, 0.003, 0.0, 0.0, 0.0, 0.003)"
2021/11/08/17:20:18.874665,59914,1636388418,873567953,imu_iphone,-0.0968370169829,-0.0819317999079,-0.468864296381,0.87411443409,"(0.00872665, 0.0, 0.0, 0.0, 0.00872665, 0.0, 0.0, 0.0, 0.00872665)",-0.305332809687,-0.0712095275521,-0.795341551304,"(0.000872665, 0.0, 0.0, 0.0, 0.000872665, 0.0, 0.0, 0.0, 0.000872665)",0.618615974039,-2.88093893945,-0.474210358858,"(0.003, 0.0, 0.0, 0.0, 0.003, 0.0, 0.0, 0.0, 0.003)"
2021/11/08/17:20:18.904862,59915,1636388418,904631339,imu_iphone,-0.102579128857,-0.0814065353516,-0.47980326176,0.867547882442,"(0.00872665, 0.0, 0.0, 0.0, 0.00872665, 0.0, 0.0, 0.0, 0.00872665)",-0.241349354386,-0.0616820938885,-0.754660725594,"(0.000872665, 0.0, 0.0, 0.0, 0.000872665, 0.0, 0.0, 0.0, 0.000872665)",0.743330067247,-3.02804026723,-0.418202803731,"(0.003, 0.0, 0.0, 0.0, 0.003, 0.0, 0.0, 0.0, 0.003)"
2021/11/08/17:20:18.962888,59916,1636388418,962056648,imu_iphone,-0.10754634189,-0.0800955022987,-0.490023930749,0.861333293302,"(0.00872665, 0.0, 0.0, 0.0, 0.00872665, 0.0, 0.0, 0.0, 0.00872665)",-0.171519964933,-0.0494055524468,-0.709946095943,"(0.000872665, 0.0, 0.0, 0.0, 0.000872665, 0.0, 0.0, 0.0, 0.000872665)",0.857299243882,-3.10335357428,-0.392763907313,"(0.003, 0.0, 0.0, 0.0, 0.003, 0.0, 0.0, 0.0, 0.003)"
2021/11/08/17:20:18.966993,59917,1636388418,965902661,imu_iphone,-0.111548948593,-0.0781115258764,-0.499436640787,0.855580775516,"(0.00872665, 0.0, 0.0, 0.0, 0.00872665, 0.0, 0.0, 0.0, 0.00872665)",-0.103143326938,-0.0262692682445,-0.655994355679,"(0.000872665, 0.0, 0.0, 0.0, 0.000872665, 0.0, 0.0, 0.0, 0.000872665)",0.973881614283,-3.14404259384,-0.37252669394,"(0.003, 0.0, 0.0, 0.0, 0.003, 0.0, 0.0, 0.0, 0.003)"
2021/11/08/17:20:18.993863,59918,1636388418,993647364,imu_iphone,-0.11442786265,-0.0756314664012,-0.507806315044,0.850481564727,"(0.00872665, 0.0, 0.0, 0.0, 0.00872665, 0.0, 0.0, 0.0, 0.00872665)",-0.0310112163424,-0.00021967664361,-0.58076441288,"(0.000872665, 0.0, 0.0, 0.0, 0.000872665, 0.0, 0.0, 0.0, 0.000872665)",1.06470517248,-3.12912166893,-0.366283621788,"(0.003, 0.0, 0.0, 0.0, 0.003, 0.0, 0.0, 0.0, 0.003)"
2021/11/08/17:20:19.024286,59919,1636388419,23574119,imu_iphone,-0.116094258974,-0.072885444617,-0.514920620359,0.846207178961,"(0.00872665, 0.0, 0.0, 0.0, 0.00872665, 0.0, 0.0, 0.0, 0.00872665)",0.034574855119,0.0245222710073,-0.494019299746,"(0.000872665, 0.0, 0.0, 0.0, 0.000872665, 0.0, 0.0, 0.0, 0.000872665)",1.10699632913,-3.08424896657,-0.353693981767,"(0.003, 0.0, 0.0, 0.0, 0.003, 0.0, 0.0, 0.0, 0.003)"
2021/11/08/17:20:19.069750,59920,1636388419,69444060,imu_iphone,-0.116534661809,-0.0700809102993,-0.520575136384,0.842917472821,"(0.00872665, 0.0, 0.0, 0.0, 0.00872665, 0.0, 0.0, 0.0, 0.00872665)",0.0918957740068,0.0502994954586,-0.381542861462,"(0.000872665, 0.0, 0.0, 0.0, 0.000872665, 0.0, 0.0, 0.0, 0.000872665)",1.11671717897,-3.0036883682,-0.36924289763,"(0.003, 0.0, 0.0, 0.0, 0.003, 0.0, 0.0, 0.0, 0.003)"
2021/11/08/17:20:19.086807,59921,1636388419,86460481,imu_iphone,-0.115735373927,-0.067416303597,-0.524497647922,0.840810669863,"(0.00872665, 0.0, 0.0, 0.0, 0.00872665, 0.0, 0.0, 0.0, 0.00872665)",0.150206685066,0.0774450004101,-0.253701388836,"(0.000872665, 0.0, 0.0, 0.0, 0.000872665, 0.0, 0.0, 0.0, 0.000872665)",1.11295785785,-2.91731125206,-0.385655447245,"(0.003, 0.0, 0.0, 0.0, 0.003, 0.0, 0.0, 0.0, 0.003)"
2021/11/08/17:20:19.220160,59922,1636388419,219867103,imu_iphone,-0.113716843554,-0.0650315505191,-0.526472738767,0.840039184958,"(0.00872665, 0.0, 0.0, 0.0, 0.00872665, 0.0, 0.0, 0.0, 0.00872665)",0.20227150619,0.101271942258,-0.103800937533,"(0.000872665, 0.0, 0.0, 0.0, 0.000872665, 0.0, 0.0, 0.0, 0.000872665)",1.07615760215,-2.81406784236,-0.396566936374,"(0.003, 0.0, 0.0, 0.0, 0.003, 0.0, 0.0, 0.0, 0.003)"
2021/11/08/17:20:19.232037,59923,1636388419,231751140,imu_iphone,-0.0952173624842,-0.0581275333531,-0.513434677928,0.85084644634,"(0.00872665, 0.0, 0.0, 0.0, 0.00872665, 0.0, 0.0, 0.0, 0.00872665)",0.398081243038,0.155091315508,0.500832617283,"(0.000872665, 0.0, 0.0, 0.0, 0.000872665, 0.0, 0.0, 0.0, 0.000872665)",0.788565735519,-2.39342397228,-0.472898243666,"(0.003, 0.0, 0.0, 0.0, 0.003, 0.0, 0.0, 0.0, 0.003)"
2021/11/08/17:20:19.273484,59924,1636388419,273068237,imu_iphone,-0.0884834740336,-0.0564094171183,-0.505403058412,0.85647907215,"(0.00872665, 0.0, 0.0, 0.0, 0.00872665, 0.0, 0.0, 0.0, 0.00872665)",0.443620443344,0.156475871801,0.62687176466,"(0.000872665, 0.0, 0.0, 0.0, 0.000872665, 0.0, 0.0, 0.0, 0.000872665)",0.709134234488,-2.24953130409,-0.510480052829,"(0.003, 0.0, 0.0, 0.0, 0.003, 0.0, 0.0, 0.0, 0.003)"
2021/11/08/17:20:19.411249,59925,1636388419,410996790,imu_iphone,-0.0497959714333,-0.0412409012801,-0.444898459099,0.893244037418,"(0.00872665, 0.0, 0.0, 0.0, 0.00872665, 0.0, 0.0, 0.0, 0.00872665)",0.573559761047,0.133120849729,1.07453238964,"(0.000872665, 0.0, 0.0, 0.0, 0.000872665, 0.0, 0.0, 0.0, 0.000872665)",0.150162089355,-1.13871842422,-0.545156965256,"(0.003, 0.0, 0.0, 0.0, 0.003, 0.0, 0.0, 0.0, 0.003)"
2021/11/08/17:20:19.714042,59926,1636388419,713340187,imu_iphone,-0.0122923047314,0.0109208349415,-0.261770390856,0.964990102063,"(0.00872665, 0.0, 0.0, 0.0, 0.00872665, 0.0, 0.0, 0.0, 0.00872665)",0.356841474771,-0.0661703646183,1.16113257408,"(0.000872665, 0.0, 0.0, 0.0, 0.000872665, 0.0, 0.0, 0.0, 0.000872665)",-0.11653727375,0.497497589551,-0.235525846481,"(0.003, 0.0, 0.0, 0.0, 0.003, 0.0, 0.0, 0.0, 0.003)"
2021/11/08/17:20:19.738269,59927,1636388419,737980876,imu_iphone,-0.0126593073996,0.01555215676,-0.24566197316,0.969148114222,"(0.00872665, 0.0, 0.0, 0.0, 0.00872665, 0.0, 0.0, 0.0, 0.00872665)",0.33236643672,-0.0735268443823,1.04097950459,"(0.000872665, 0.0, 0.0, 0.0, 0.000872665, 0.0, 0.0, 0.0, 0.000872665)",-0.0810030864179,0.587819273919,-0.217753234506,"(0.003, 0.0, 0.0, 0.0, 0.003, 0.0, 0.0, 0.0, 0.003)"
2021/11/08/17:20:19.798809,59928,1636388419,798425838,imu_iphone,-0.0133700479214,0.0198658969732,-0.231368586017,0.972571419157,"(0.00872665, 0.0, 0.0, 0.0, 0.00872665, 0.0, 0.0, 0.0, 0.00872665)",0.303145259619,-0.0773860812187,0.89896184206,"(0.000872665, 0.0, 0.0, 0.0, 0.000872665, 0.0, 0.0, 0.0, 0.000872665)",-0.0531661372259,0.670903092027,-0.194918103218,"(0.003, 0.0, 0.0, 0.0, 0.003, 0.0, 0.0, 0.0, 0.003)"
2021/11/08/17:20:19.802994,59929,1636388419,802716228,imu_iphone,-0.0142761717681,0.0238099991713,-0.219155586163,0.975294880491,"(0.00872665, 0.0, 0.0, 0.0, 0.00872665, 0.0, 0.0, 0.0, 0.00872665)",0.275578975677,-0.0742803514004,0.74576240778,"(0.000872665, 0.0, 0.0, 0.0, 0.000872665, 0.0, 0.0, 0.0, 0.000872665)",-0.0238122375682,0.770693793967,-0.148045068383,"(0.003, 0.0, 0.0, 0.0, 0.003, 0.0, 0.0, 0.0, 0.003)"
2021/11/08/17:20:19.829103,59930,1636388419,827803484,imu_iphone,-0.0152312064026,0.0274007766822,-0.209172483373,0.977376120022,"(0.00872665, 0.0, 0.0, 0.0, 0.00872665, 0.0, 0.0, 0.0, 0.00872665)",0.248031005263,-0.0673616528511,0.589968681335,"(0.000872665, 0.0, 0.0, 0.0, 0.000872665, 0.0, 0.0, 0.0, 0.000872665)",0.0199765737355,0.859757778794,-0.127207930684,"(0.003, 0.0, 0.0, 0.0, 0.003, 0.0, 0.0, 0.0, 0.003)"
2021/11/08/17:20:19.857750,59931,1636388419,857301573,imu_iphone,-0.0161406175956,0.0305741227584,-0.201423341937,0.978893937464,"(0.00872665, 0.0, 0.0, 0.0, 0.00872665, 0.0, 0.0, 0.0, 0.00872665)",0.212457433343,-0.0619633719325,0.439970165491,"(0.000872665, 0.0, 0.0, 0.0, 0.000872665, 0.0, 0.0, 0.0, 0.000872665)",0.053156818226,0.965448540598,-0.102187694907,"(0.003, 0.0, 0.0, 0.0, 0.003, 0.0, 0.0, 0.0, 0.003)"
2021/11/08/17:20:19.899893,59932,1636388419,899625475,imu_iphone,-0.0169239782353,0.0332489704336,-0.195882085152,0.979917493283,"(0.00872665, 0.0, 0.0, 0.0, 0.00872665, 0.0, 0.0, 0.0, 0.00872665)",0.169135600328,-0.0526297688484,0.289427578449,"(0.000872665, 0.0, 0.0, 0.0, 0.000872665, 0.0, 0.0, 0.0, 0.000872665)",0.0882213279605,1.07296524167,-0.0723657256365,"(0.003, 0.0, 0.0, 0.0, 0.003, 0.0, 0.0, 0.0, 0.003)"
2021/11/08/17:20:19.917864,59933,1636388419,917580195,imu_iphone,-0.0174900153119,0.0353769624446,-0.192491732472,0.980504718409,"(0.00872665, 0.0, 0.0, 0.0, 0.00872665, 0.0, 0.0, 0.0, 0.00872665)",0.125753641129,-0.0390779562294,0.150136560202,"(0.000872665, 0.0, 0.0, 0.0, 0.000872665, 0.0, 0.0, 0.0, 0.000872665)",0.124590095691,1.17524473786,-0.0471724122763,"(0.003, 0.0, 0.0, 0.0, 0.003, 0.0, 0.0, 0.0, 0.003)"
2021/11/08/17:20:19.948957,59934,1636388419,948184970,imu_iphone,-0.0178264062663,0.0368474755194,-0.191074386835,0.980721704401,"(0.00872665, 0.0, 0.0, 0.0, 0.00872665, 0.0, 0.0, 0.0, 0.00872665)",0.0691171959043,-0.0267609339207,0.0282872449607,"(0.000872665, 0.0, 0.0, 0.0, 0.000872665, 0.0, 0.0, 0.0, 0.000872665)",0.153179873899,1.28165207595,-0.0235929304361,"(0.003, 0.0, 0.0, 0.0, 0.003, 0.0, 0.0, 0.0, 0.003)"
2021/11/08/17:20:20.007164,59935,1636388420,6846035,imu_iphone,-0.0179521465381,0.0375334999751,-0.191336778316,0.980642235516,"(0.00872665, 0.0, 0.0, 0.0, 0.00872665, 0.0, 0.0, 0.0, 0.00872665)",0.0132378973067,-0.0096956891939,-0.0696518495679,"(0.000872665, 0.0, 0.0, 0.0, 0.000872665, 0.0, 0.0, 0.0, 0.000872665)",0.178394712321,1.36144040331,0.00480641126633,"(0.003, 0.0, 0.0, 0.0, 0.003, 0.0, 0.0, 0.0, 0.003)"
2021/11/08/17:20:20.010222,59936,1636388420,9971346,imu_iphone,-0.0180497488192,0.0360874737493,-0.192996463977,0.980369453675,"(0.00872665, 0.0, 0.0, 0.0, 0.00872665, 0.0, 0.0, 0.0, 0.00872665)",-0.0532842203975,0.00258252583444,-0.143257394433,"(0.000872665, 0.0, 0.0, 0.0, 0.000872665, 0.0, 0.0, 0.0, 0.000872665)",0.202716973275,1.35267922774,0.0101191914082,"(0.003, 0.0, 0.0, 0.0, 0.003, 0.0, 0.0, 0.0, 0.003)"
2021/11/08/17:20:20.036121,59937,1636388420,35821648,imu_iphone,-0.018085202119,0.0330279130171,-0.195674646103,0.979945669565,"(0.00872665, 0.0, 0.0, 0.0, 0.00872665, 0.0, 0.0, 0.0, 0.00872665)",-0.118487939239,0.021407270804,-0.196866616607,"(0.000872665, 0.0, 0.0, 0.0, 0.000872665, 0.0, 0.0, 0.0, 0.000872665)",0.220043296516,1.29172141984,0.00990225970745,"(0.003, 0.0, 0.0, 0.0, 0.003, 0.0, 0.0, 0.0, 0.003)"
2021/11/08/17:20:20.074035,59938,1636388420,73097433,imu_iphone,-0.0180584906269,0.0290134736704,-0.199056310996,0.979392002374,"(0.00872665, 0.0, 0.0, 0.0, 0.00872665, 0.0, 0.0, 0.0, 0.00872665)",-0.184669703245,0.0328085049987,-0.228133767843,"(0.000872665, 0.0, 0.0, 0.0, 0.000872665, 0.0, 0.0, 0.0, 0.000872665)",0.228000479937,1.15998737879,-0.00525079965591,"(0.003, 0.0, 0.0, 0.0, 0.003, 0.0, 0.0, 0.0, 0.003)"
2021/11/08/17:20:20.109142,59939,1636388420,108802885,imu_iphone,-0.0179510725264,0.0241582859267,-0.202877521591,0.978741460984,"(0.00872665, 0.0, 0.0, 0.0, 0.00872665, 0.0, 0.0, 0.0, 0.00872665)",-0.241477042437,0.0524160340428,-0.256733983755,"(0.000872665, 0.0, 0.0, 0.0, 0.000872665, 0.0, 0.0, 0.0, 0.000872665)",0.197030592598,1.01201817803,-0.0388787215948,"(0.003, 0.0, 0.0, 0.0, 0.003, 0.0, 0.0, 0.0, 0.003)"
2021/11/08/17:20:20.124774,59940,1636388420,124426357,imu_iphone,-0.0177553069764,0.018650775189,-0.207141168304,0.977972102901,"(0.00872665, 0.0, 0.0, 0.0, 0.00872665, 0.0, 0.0, 0.0, 0.00872665)",-0.293476641178,0.0699869394302,-0.283293515444,"(0.000872665, 0.0, 0.0, 0.0, 0.000872665, 0.0, 0.0, 0.0, 0.000872665)",0.157672143504,0.838359454572,-0.0908481895924,"(0.003, 0.0, 0.0, 0.0, 0.003, 0.0, 0.0, 0.0, 0.003)"
2021/11/08/17:20:20.155520,59941,1636388420,155089633,imu_iphone,-0.0174733848854,0.0135708002177,-0.211890406815,0.97704297229,"(0.00872665, 0.0, 0.0, 0.0, 0.00872665, 0.0, 0.0, 0.0, 0.00872665)",-0.339276909828,0.0775960236788,-0.321716099977,"(0.000872665, 0.0, 0.0, 0.0, 0.000872665, 0.0, 0.0, 0.0, 0.000872665)",0.106966331899,0.680879319012,-0.132647595406,"(0.003, 0.0, 0.0, 0.0, 0.003, 0.0, 0.0, 0.0, 0.003)"
2021/11/08/17:20:20.214717,59942,1636388420,214360210,imu_iphone,-0.0172300287276,0.0084005024249,-0.217135806305,0.975953174742,"(0.00872665, 0.0, 0.0, 0.0, 0.00872665, 0.0, 0.0, 0.0, 0.00872665)",-0.373270779848,0.0866635590792,-0.35791566968,"(0.000872665, 0.0, 0.0, 0.0, 0.000872665, 0.0, 0.0, 0.0, 0.000872665)",0.0414858123288,0.48861749623,-0.168872850537,"(0.003, 0.0, 0.0, 0.0, 0.003, 0.0, 0.0, 0.0, 0.003)"
2021/11/08/17:20:20.218433,59943,1636388420,218147307,imu_iphone,-0.0171282410126,0.00272154239815,-0.222955481836,0.974674340324,"(0.00872665, 0.0, 0.0, 0.0, 0.00872665, 0.0, 0.0, 0.0, 0.00872665)",-0.403993576765,0.0902190506458,-0.401987612247,"(0.000872665, 0.0, 0.0, 0.0, 0.000872665, 0.0, 0.0, 0.0, 0.000872665)",-0.0310295654833,0.319158169962,-0.212471444607,"(0.003, 0.0, 0.0, 0.0, 0.003, 0.0, 0.0, 0.0, 0.003)"
2021/11/08/17:20:20.244784,59944,1636388420,244364455,imu_iphone,-0.0172361412065,-0.00331681837941,-0.229323542498,0.973191978496,"(0.00872665, 0.0, 0.0, 0.0, 0.00872665, 0.0, 0.0, 0.0, 0.00872665)",-0.429690271616,0.0898223519325,-0.438724964857,"(0.000872665, 0.0, 0.0, 0.0, 0.000872665, 0.0, 0.0, 0.0, 0.000872665)",-0.0851859652251,0.114038027599,-0.260515092015,"(0.003, 0.0, 0.0, 0.0, 0.003, 0.0, 0.0, 0.0, 0.003)"
2021/11/08/17:20:20.274413,59945,1636388420,274092754,imu_iphone,-0.017659306737,-0.00961539514689,-0.236483294042,0.971427477839,"(0.00872665, 0.0, 0.0, 0.0, 0.00872665, 0.0, 0.0, 0.0, 0.00872665)",-0.448083847761,0.0844864249229,-0.506089687347,"(0.000872665, 0.0, 0.0, 0.0, 0.000872665, 0.0, 0.0, 0.0, 0.000872665)",-0.149919082727,-0.0466533074342,-0.289347127676,"(0.003, 0.0, 0.0, 0.0, 0.003, 0.0, 0.0, 0.0, 0.003)"
2021/11/08/17:20:20.319380,59946,1636388420,319167892,imu_iphone,-0.0184398534142,-0.0160511708614,-0.244471954759,0.969348128928,"(0.00872665, 0.0, 0.0, 0.0, 0.00872665, 0.0, 0.0, 0.0, 0.00872665)",-0.462612956762,0.076068341732,-0.566610097885,"(0.000872665, 0.0, 0.0, 0.0, 0.000872665, 0.0, 0.0, 0.0, 0.000872665)",-0.172512139287,-0.254507370293,-0.323228234053,"(0.003, 0.0, 0.0, 0.0, 0.003, 0.0, 0.0, 0.0, 0.003)"
2021/11/08/17:20:20.336258,59947,1636388420,333887553,imu_iphone,-0.0196132516928,-0.022516996881,-0.253253837013,0.966938880823,"(0.00872665, 0.0, 0.0, 0.0, 0.00872665, 0.0, 0.0, 0.0, 0.00872665)",-0.467600911856,0.0679037645459,-0.621446311474,"(0.000872665, 0.0, 0.0, 0.0, 0.000872665, 0.0, 0.0, 0.0, 0.000872665)",-0.196494366378,-0.416257581264,-0.34276845932,"(0.003, 0.0, 0.0, 0.0, 0.003, 0.0, 0.0, 0.0, 0.003)"
2021/11/08/17:20:20.364522,59948,1636388420,363930504,imu_iphone,-0.0212696573665,-0.0289220589558,-0.262833594165,0.964173022833,"(0.00872665, 0.0, 0.0, 0.0, 0.00872665, 0.0, 0.0, 0.0, 0.00872665)",-0.474251568317,0.0595031827688,-0.679823458195,"(0.000872665, 0.0, 0.0, 0.0, 0.000872665, 0.0, 0.0, 0.0, 0.000872665)",-0.194804173876,-0.601119423732,-0.370170266032,"(0.003, 0.0, 0.0, 0.0, 0.003, 0.0, 0.0, 0.0, 0.003)"
2021/11/08/17:20:20.426183,59949,1636388420,425812622,imu_iphone,-0.0233891607265,-0.0351913107784,-0.273229313014,0.961020427107,"(0.00872665, 0.0, 0.0, 0.0, 0.00872665, 0.0, 0.0, 0.0, 0.00872665)",-0.470450431108,0.0500595420599,-0.739277362823,"(0.000872665, 0.0, 0.0, 0.0, 0.000872665, 0.0, 0.0, 0.0, 0.000872665)",-0.184436439257,-0.786827504486,-0.368388034701,"(0.003, 0.0, 0.0, 0.0, 0.003, 0.0, 0.0, 0.0, 0.003)"
2021/11/08/17:20:20.430322,59950,1636388420,429905549,imu_iphone,-0.025969673674,-0.0412125733462,-0.284439207319,0.957455710301,"(0.00872665, 0.0, 0.0, 0.0, 0.00872665, 0.0, 0.0, 0.0, 0.00872665)",-0.465629965067,0.0408246219158,-0.795028090477,"(0.000872665, 0.0, 0.0, 0.0, 0.000872665, 0.0, 0.0, 0.0, 0.000872665)",-0.15768358212,-0.954145361111,-0.404461846948,"(0.003, 0.0, 0.0, 0.0, 0.003, 0.0, 0.0, 0.0, 0.003)"
2021/11/08/17:20:20.453715,59951,1636388420,453031088,imu_iphone,-0.0290341192233,-0.0469120294724,-0.296380696737,0.95347509879,"(0.00872665, 0.0, 0.0, 0.0, 0.00872665, 0.0, 0.0, 0.0, 0.00872665)",-0.457674890757,0.0377853251994,-0.847287893295,"(0.000872665, 0.0, 0.0, 0.0, 0.000872665, 0.0, 0.0, 0.0, 0.000872665)",-0.126471656598,-1.10600062139,-0.410587974787,"(0.003, 0.0, 0.0, 0.0, 0.003, 0.0, 0.0, 0.0, 0.003)"
2021/11/08/17:20:20.483062,59952,1636388420,482812791,imu_iphone,-0.0325505532708,-0.052265937317,-0.308969187515,0.949076801131,"(0.00872665, 0.0, 0.0, 0.0, 0.00872665, 0.0, 0.0, 0.0, 0.00872665)",-0.447579562664,0.0284179467708,-0.887842535973,"(0.000872665, 0.0, 0.0, 0.0, 0.000872665, 0.0, 0.0, 0.0, 0.000872665)",-0.100654262602,-1.24435488001,-0.428248904943,"(0.003, 0.0, 0.0, 0.0, 0.003, 0.0, 0.0, 0.0, 0.003)"
2021/11/08/17:20:20.527197,59953,1636388420,526401073,imu_iphone,-0.0364999361094,-0.057225056976,-0.322047490904,0.944287276797,"(0.00872665, 0.0, 0.0, 0.0, 0.00872665, 0.0, 0.0, 0.0, 0.00872665)",-0.436312645674,0.0250349789858,-0.918112158775,"(0.000872665, 0.0, 0.0, 0.0, 0.000872665, 0.0, 0.0, 0.0, 0.000872665)",-0.0690020051971,-1.37974613518,-0.422996351123,"(0.003, 0.0, 0.0, 0.0, 0.003, 0.0, 0.0, 0.0, 0.003)"
2021/11/08/17:20:20.548803,59954,1636388420,548533411,imu_iphone,-0.0408210004185,-0.0617613510186,-0.335434410917,0.939150114422,"(0.00872665, 0.0, 0.0, 0.0, 0.00872665, 0.0, 0.0, 0.0, 0.00872665)",-0.42747169733,0.0171552170068,-0.936343967915,"(0.000872665, 0.0, 0.0, 0.0, 0.000872665, 0.0, 0.0, 0.0, 0.000872665)",-0.0273170951754,-1.50427136332,-0.435201829076,"(0.003, 0.0, 0.0, 0.0, 0.003, 0.0, 0.0, 0.0, 0.003)"
2021/11/08/17:20:20.572532,59955,1636388420,572286857,imu_iphone,-0.0454623955969,-0.0658920240123,-0.348937047445,0.933720701644,"(0.00872665, 0.0, 0.0, 0.0, 0.00872665, 0.0, 0.0, 0.0, 0.00872665)",-0.414883375168,0.0150067983195,-0.936296880245,"(0.000872665, 0.0, 0.0, 0.0, 0.000872665, 0.0, 0.0, 0.0, 0.000872665)",0.00288391984999,-1.6186487487,-0.434843394756,"(0.003, 0.0, 0.0, 0.0, 0.003, 0.0, 0.0, 0.0, 0.003)"
2021/11/08/17:20:20.635172,59956,1636388420,634359101,imu_iphone,-0.0503844923579,-0.0695851944955,-0.362352349052,0.928073315409,"(0.00872665, 0.0, 0.0, 0.0, 0.00872665, 0.0, 0.0, 0.0, 0.00872665)",-0.404113233089,0.00445041805506,-0.922869920731,"(0.000872665, 0.0, 0.0, 0.0, 0.000872665, 0.0, 0.0, 0.0, 0.000872665)",0.0426751725376,-1.75085254043,-0.440145065188,"(0.003, 0.0, 0.0, 0.0, 0.003, 0.0, 0.0, 0.0, 0.003)"
2021/11/08/17:20:20.639170,59957,1636388420,638456799,imu_iphone,-0.0555219077572,-0.0728501851645,-0.375486173593,0.922290790218,"(0.00872665, 0.0, 0.0, 0.0, 0.00872665, 0.0, 0.0, 0.0, 0.00872665)",-0.39037451148,-0.00365481572226,-0.897565543652,"(0.000872665, 0.0, 0.0, 0.0, 0.000872665, 0.0, 0.0, 0.0, 0.000872665)",0.0880874632671,-1.86709021747,-0.439586656094,"(0.003, 0.0, 0.0, 0.0, 0.003, 0.0, 0.0, 0.0, 0.003)"
2021/11/08/17:20:20.663881,59958,1636388420,662459765,imu_iphone,-0.0607960819993,-0.0756833591444,-0.388169932698,0.916460565934,"(0.00872665, 0.0, 0.0, 0.0, 0.00872665, 0.0, 0.0, 0.0, 0.00872665)",-0.373548060656,-0.00891765858978,-0.866371750832,"(0.000872665, 0.0, 0.0, 0.0, 0.000872665, 0.0, 0.0, 0.0, 0.000872665)",0.126985297948,-2.00484915644,-0.454640312791,"(0.003, 0.0, 0.0, 0.0, 0.003, 0.0, 0.0, 0.0, 0.003)"
2021/11/08/17:20:20.692532,59959,1636388420,691680561,imu_iphone,-0.0661542301159,-0.0780670613579,-0.40033560897,0.910637442652,"(0.00872665, 0.0, 0.0, 0.0, 0.00872665, 0.0, 0.0, 0.0, 0.00872665)",-0.355342417955,-0.0195150095969,-0.827537417412,"(0.000872665, 0.0, 0.0, 0.0, 0.000872665, 0.0, 0.0, 0.0, 0.000872665)",0.176738634668,-2.12637432441,-0.430419976115,"(0.003, 0.0, 0.0, 0.0, 0.003, 0.0, 0.0, 0.0, 0.003)"
2021/11/08/17:20:20.735757,59960,1636388420,735305262,imu_iphone,-0.0714610469481,-0.079991360479,-0.411826791752,0.904927286921,"(0.00872665, 0.0, 0.0, 0.0, 0.00872665, 0.0, 0.0, 0.0, 0.00872665)",-0.326588690281,-0.0258342772722,-0.772583186626,"(0.000872665, 0.0, 0.0, 0.0, 0.000872665, 0.0, 0.0, 0.0, 0.000872665)",0.259288711622,-2.28413293362,-0.434549279809,"(0.003, 0.0, 0.0, 0.0, 0.003, 0.0, 0.0, 0.0, 0.003)"
2021/11/08/17:20:20.751534,59961,1636388420,751096589,imu_iphone,-0.0766590007367,-0.0814076834221,-0.422720841512,0.89933490805,"(0.00872665, 0.0, 0.0, 0.0, 0.00872665, 0.0, 0.0, 0.0, 0.00872665)",-0.298378407955,-0.0377348028123,-0.739922165871,"(0.000872665, 0.0, 0.0, 0.0, 0.000872665, 0.0, 0.0, 0.0, 0.000872665)",0.311926224008,-2.40019548655,-0.420161036253,"(0.003, 0.0, 0.0, 0.0, 0.003, 0.0, 0.0, 0.0, 0.003)"
2021/11/08/17:20:20.783866,59962,1636388420,783463097,imu_iphone,-0.0816364245338,-0.0823054741407,-0.43298954816,0.893913504932,"(0.00872665, 0.0, 0.0, 0.0, 0.00872665, 0.0, 0.0, 0.0, 0.00872665)",-0.261736512184,-0.0355388596654,-0.697663426399,"(0.000872665, 0.0, 0.0, 0.0, 0.000872665, 0.0, 0.0, 0.0, 0.000872665)",0.375423404574,-2.52982679576,-0.402129392624,"(0.003, 0.0, 0.0, 0.0, 0.003, 0.0, 0.0, 0.0, 0.003)"
2021/11/08/17:20:20.840471,59963,1636388420,840047957,imu_iphone,-0.086224227511,-0.082680962276,-0.442509269032,0.888771504881,"(0.00872665, 0.0, 0.0, 0.0, 0.00872665, 0.0, 0.0, 0.0, 0.00872665)",-0.220840066671,-0.0332715660334,-0.649066209793,"(0.000872665, 0.0, 0.0, 0.0, 0.000872665, 0.0, 0.0, 0.0, 0.000872665)",0.429004511386,-2.61817734718,-0.433423106074,"(0.003, 0.0, 0.0, 0.0, 0.003, 0.0, 0.0, 0.0, 0.003)"
2021/11/08/17:20:20.843349,59964,1636388420,842961912,imu_iphone,-0.0903653909792,-0.0824961610947,-0.451383480354,0.883901257597,"(0.00872665, 0.0, 0.0, 0.0, 0.00872665, 0.0, 0.0, 0.0, 0.00872665)",-0.17329312861,-0.0301845502108,-0.602379739285,"(0.000872665, 0.0, 0.0, 0.0, 0.000872665, 0.0, 0.0, 0.0, 0.000872665)",0.526376074031,-2.74138753653,-0.383853335381,"(0.003, 0.0, 0.0, 0.0, 0.003, 0.0, 0.0, 0.0, 0.003)"
2021/11/08/17:20:20.871425,59965,1636388420,870713432,imu_iphone,-0.0938878619734,-0.0817931527736,-0.459504679558,0.879403433583,"(0.00872665, 0.0, 0.0, 0.0, 0.00872665, 0.0, 0.0, 0.0, 0.00872665)",-0.119670294225,-0.0208142921329,-0.548452436924,"(0.000872665, 0.0, 0.0, 0.0, 0.000872665, 0.0, 0.0, 0.0, 0.000872665)",0.623115552664,-2.81363865674,-0.384292461276,"(0.003, 0.0, 0.0, 0.0, 0.003, 0.0, 0.0, 0.0, 0.003)"
2021/11/08/17:20:20.900691,59966,1636388420,900017657,imu_iphone,-0.0966698638312,-0.0806042844401,-0.466758246136,0.875382560039,"(0.00872665, 0.0, 0.0, 0.0, 0.00872665, 0.0, 0.0, 0.0, 0.00872665)",-0.0643452852964,-0.00859820283949,-0.492796182632,"(0.000872665, 0.0, 0.0, 0.0, 0.000872665, 0.0, 0.0, 0.0, 0.000872665)",0.69536893867,-2.84521508306,-0.358722587228,"(0.003, 0.0, 0.0, 0.0, 0.003, 0.0, 0.0, 0.0, 0.003)"
2021/11/08/17:20:20.945332,59967,1636388420,944990135,imu_iphone,-0.0985964920082,-0.0790647290894,-0.473008011697,0.871946627523,"(0.00872665, 0.0, 0.0, 0.0, 0.00872665, 0.0, 0.0, 0.0, 0.00872665)",-0.0109908739105,0.0102231074125,-0.420116454363,"(0.000872665, 0.0, 0.0, 0.0, 0.000872665, 0.0, 0.0, 0.0, 0.000872665)",0.762440741435,-2.8508111608,-0.364873273373,"(0.003, 0.0, 0.0, 0.0, 0.003, 0.0, 0.0, 0.0, 0.003)"
2021/11/08/17:20:20.959808,59968,1636388420,959473749,imu_iphone,-0.099596606915,-0.0772827383162,-0.47807013514,0.869227726282,"(0.00872665, 0.0, 0.0, 0.0, 0.00872665, 0.0, 0.0, 0.0, 0.00872665)",0.0448730289936,0.0246071591973,-0.329713791609,"(0.000872665, 0.0, 0.0, 0.0, 0.000872665, 0.0, 0.0, 0.0, 0.000872665)",0.792080643028,-2.83133437783,-0.340842386484,"(0.003, 0.0, 0.0, 0.0, 0.003, 0.0, 0.0, 0.0, 0.003)"
2021/11/08/17:20:20.989560,59969,1636388420,989333276,imu_iphone,-0.0996086912761,-0.0754031321315,-0.481763279463,0.867350343776,"(0.00872665, 0.0, 0.0, 0.0, 0.00872665, 0.0, 0.0, 0.0, 0.00872665)",0.0912892967463,0.0452671609819,-0.230683088303,"(0.000872665, 0.0, 0.0, 0.0, 0.000872665, 0.0, 0.0, 0.0, 0.000872665)",0.798838270158,-2.78721742809,-0.356065612435,"(0.003, 0.0, 0.0, 0.0, 0.003, 0.0, 0.0, 0.0, 0.003)"
2021/11/08/17:20:21.054152,59970,1636388421,53846767,imu_iphone,-0.0986105070114,-0.0734816413566,-0.483906582918,0.866435707539,"(0.00872665, 0.0, 0.0, 0.0, 0.00872665, 0.0, 0.0, 0.0, 0.00872665)",0.142217770219,0.0613802745938,-0.117446877062,"(0.000872665, 0.0, 0.0, 0.0, 0.000872665, 0.0, 0.0, 0.0, 0.000872665)",0.782879976109,-2.72500919312,-0.361988841891,"(0.003, 0.0, 0.0, 0.0, 0.003, 0.0, 0.0, 0.0, 0.003)"
2021/11/08/17:20:21.057716,59971,1636388421,57389404,imu_iphone,-0.0966484377578,-0.0715835940561,-0.48437722457,0.866552694796,"(0.00872665, 0.0, 0.0, 0.0, 0.00872665, 0.0, 0.0, 0.0, 0.00872665)",0.19537974894,0.0728673636913,0.0044615236111,"(0.000872665, 0.0, 0.0, 0.0, 0.000872665, 0.0, 0.0, 0.0, 0.000872665)",0.734175666422,-2.65421519905,-0.361194790006,"(0.003, 0.0, 0.0, 0.0, 0.003, 0.0, 0.0, 0.0, 0.003)"
2021/11/08/17:20:21.078465,59972,1636388421,77827044,imu_iphone,-0.093782428097,-0.0697129634439,-0.483127840176,0.867716802277,"(0.00872665, 0.0, 0.0, 0.0, 0.00872665, 0.0, 0.0, 0.0, 0.00872665)",0.23712348938,0.0850989222527,0.127867788076,"(0.000872665, 0.0, 0.0, 0.0, 0.000872665, 0.0, 0.0, 0.0, 0.000872665)",0.694802270383,-2.57500793874,-0.379130539298,"(0.003, 0.0, 0.0, 0.0, 0.003, 0.0, 0.0, 0.0, 0.003)"
2021/11/08/17:20:21.152594,59973,1636388421,152267199,imu_iphone,-0.090107737193,-0.0678451959713,-0.480195241911,0.869879390909,"(0.00872665, 0.0, 0.0, 0.0, 0.00872665, 0.0, 0.0, 0.0, 0.00872665)",0.282409191132,0.0918472781777,0.251003473997,"(0.000872665, 0.0, 0.0, 0.0, 0.000872665, 0.0, 0.0, 0.0, 0.000872665)",0.635370001048,-2.46356000841,-0.401547009945,"(0.003, 0.0, 0.0, 0.0, 0.003, 0.0, 0.0, 0.0, 0.003)"
2021/11/08/17:20:21.155860,59974,1636388421,155699391,imu_iphone,-0.0857177838562,-0.0658611917791,-0.475655636619,0.872964191878,"(0.00872665, 0.0, 0.0, 0.0, 0.00872665, 0.0, 0.0, 0.0, 0.00872665)",0.326099812984,0.0992460250854,0.362027704716,"(0.000872665, 0.0, 0.0, 0.0, 0.000872665, 0.0, 0.0, 0.0, 0.000872665)",0.566841218323,-2.33843719482,-0.416075586677,"(0.003, 0.0, 0.0, 0.0, 0.003, 0.0, 0.0, 0.0, 0.003)"
2021/11/08/17:20:21.168358,59975,1636388421,168150395,imu_iphone,-0.080708163905,-0.063714951217,-0.469626045481,0.876856872401,"(0.00872665, 0.0, 0.0, 0.0, 0.00872665, 0.0, 0.0, 0.0, 0.00872665)",0.359448194504,0.100454494357,0.46813967824,"(0.000872665, 0.0, 0.0, 0.0, 0.000872665, 0.0, 0.0, 0.0, 0.000872665)",0.508782167584,-2.1956078428,-0.424947566986,"(0.003, 0.0, 0.0, 0.0, 0.003, 0.0, 0.0, 0.0, 0.003)"
2021/11/08/17:20:21.198304,59976,1636388421,197985303,imu_iphone,-0.0752268000852,-0.06134050359,-0.462216187352,0.881438861928,"(0.00872665, 0.0, 0.0, 0.0, 0.00872665, 0.0, 0.0, 0.0, 0.00872665)",0.393861353397,0.101738058031,0.56579297781,"(0.000872665, 0.0, 0.0, 0.0, 0.000872665, 0.0, 0.0, 0.0, 0.000872665)",0.454584837332,-2.02563249975,-0.434085595608,"(0.003, 0.0, 0.0, 0.0, 0.003, 0.0, 0.0, 0.0, 0.003)"
2021/11/08/17:20:21.258044,59977,1636388421,257732469,imu_iphone,-0.0693966845095,-0.0587183686043,-0.453586931704,0.886563674394,"(0.00872665, 0.0, 0.0, 0.0, 0.00872665, 0.0, 0.0, 0.0, 0.00872665)",0.420129597187,0.104731604457,0.644960284233,"(0.000872665, 0.0, 0.0, 0.0, 0.000872665, 0.0, 0.0, 0.0, 0.000872665)",0.389817787707,-1.85690334454,-0.451183438897,"(0.003, 0.0, 0.0, 0.0, 0.003, 0.0, 0.0, 0.0, 0.003)"
2021/11/08/17:20:21.261031,59978,1636388421,260768090,imu_iphone,-0.0633475196763,-0.0557457025353,-0.44400099772,0.892044069776,"(0.00872665, 0.0, 0.0, 0.0, 0.00872665, 0.0, 0.0, 0.0, 0.00872665)",0.44127613306,0.0992721989751,0.689666628838,"(0.000872665, 0.0, 0.0, 0.0, 0.000872665, 0.0, 0.0, 0.0, 0.000872665)",0.310683836862,-1.66565773129,-0.433992040157,"(0.003, 0.0, 0.0, 0.0, 0.003, 0.0, 0.0, 0.0, 0.003)"
2021/11/08/17:20:21.287578,59979,1636388421,287286403,imu_iphone,-0.0572982623777,-0.0523829859478,-0.433885112045,0.897617202073,"(0.00872665, 0.0, 0.0, 0.0, 0.00872665, 0.0, 0.0, 0.0, 0.00872665)",0.457540184259,0.0941316187382,0.756164252758,"(0.000872665, 0.0, 0.0, 0.0, 0.000872665, 0.0, 0.0, 0.0, 0.000872665)",0.240886427611,-1.49906514868,-0.40819821775,"(0.003, 0.0, 0.0, 0.0, 0.003, 0.0, 0.0, 0.0, 0.003)"
2021/11/08/17:20:21.317204,59980,1636388421,316955540,imu_iphone,-0.0512875484834,-0.0487589370894,-0.42271985645,0.903493263056,"(0.00872665, 0.0, 0.0, 0.0, 0.00872665, 0.0, 0.0, 0.0, 0.00872665)",0.461959630251,0.0866436809301,0.830289959908,"(0.000872665, 0.0, 0.0, 0.0, 0.000872665, 0.0, 0.0, 0.0, 0.000872665)",0.145053011589,-1.2952322343,-0.391643580794,"(0.003, 0.0, 0.0, 0.0, 0.003, 0.0, 0.0, 0.0, 0.003)"
2021/11/08/17:20:21.363014,59981,1636388421,362682871,imu_iphone,-0.0455151306756,-0.0448449045257,-0.410777640249,0.909493835982,"(0.00872665, 0.0, 0.0, 0.0, 0.00872665, 0.0, 0.0, 0.0, 0.00872665)",0.464026093483,0.071306578815,0.864994704723,"(0.000872665, 0.0, 0.0, 0.0, 0.000872665, 0.0, 0.0, 0.0, 0.000872665)",0.0358209932595,-1.09026115939,-0.42573343277,"(0.003, 0.0, 0.0, 0.0, 0.003, 0.0, 0.0, 0.0, 0.003)"
2021/11/08/17:20:21.377635,59982,1636388421,377364841,imu_iphone,-0.0401017751885,-0.0406939049247,-0.398248849804,0.915496426732,"(0.00872665, 0.0, 0.0, 0.0, 0.00872665, 0.0, 0.0, 0.0, 0.00872665)",0.458462119102,0.0571339912713,0.919263541698,"(0.000872665, 0.0, 0.0, 0.0, 0.000872665, 0.0, 0.0, 0.0, 0.000872665)",-0.00600932970643,-0.896693032086,-0.368509072065,"(0.003, 0.0, 0.0, 0.0, 0.003, 0.0, 0.0, 0.0, 0.003)"
2021/11/08/17:20:21.406832,59983,1636388421,406588344,imu_iphone,-0.0351250868377,-0.036419329322,-0.384900851034,0.921569962401,"(0.00872665, 0.0, 0.0, 0.0, 0.00872665, 0.0, 0.0, 0.0, 0.00872665)",0.441837459803,0.0403881780803,0.974718630314,"(0.000872665, 0.0, 0.0, 0.0, 0.000872665, 0.0, 0.0, 0.0, 0.000872665)",-0.0554624484479,-0.7098557809,-0.36307934761,"(0.003, 0.0, 0.0, 0.0, 0.003, 0.0, 0.0, 0.0, 0.003)"
2021/11/08/17:20:21.469970,59984,1636388421,467868766,imu_iphone,-0.0306888454792,-0.0320760086757,-0.370931022392,0.927598782372,"(0.00872665, 0.0, 0.0, 0.0, 0.00872665, 0.0, 0.0, 0.0, 0.00872665)",0.425530642271,0.0252754408866,1.00537633896,"(0.000872665, 0.0, 0.0, 0.0, 0.000872665, 0.0, 0.0, 0.0, 0.000872665)",-0.121738591343,-0.555483001918,-0.335946512818,"(0.003, 0.0, 0.0, 0.0, 0.003, 0.0, 0.0, 0.0, 0.003)"
2021/11/08/17:20:21.472311,59985,1636388421,471673240,imu_iphone,-0.0268321978144,-0.0277053277876,-0.356523577922,0.933489896227,"(0.00872665, 0.0, 0.0, 0.0, 0.00872665, 0.0, 0.0, 0.0, 0.00872665)",0.406129777431,0.0065508261323,1.03059470654,"(0.000872665, 0.0, 0.0, 0.0, 0.000872665, 0.0, 0.0, 0.0, 0.000872665)",-0.1309242565,-0.416095978841,-0.313444088101,"(0.003, 0.0, 0.0, 0.0, 0.003, 0.0, 0.0, 0.0, 0.003)"
2021/11/08/17:20:21.496388,59986,1636388421,495738503,imu_iphone,-0.0236009497181,-0.0233626824285,-0.341863006022,0.93916285348,"(0.00872665, 0.0, 0.0, 0.0, 0.00872665, 0.0, 0.0, 0.0, 0.00872665)",0.381648927927,-0.00742870848626,1.03615617752,"(0.000872665, 0.0, 0.0, 0.0, 0.000872665, 0.0, 0.0, 0.0, 0.000872665)",-0.142447601929,-0.291207821332,-0.272515332699,"(0.003, 0.0, 0.0, 0.0, 0.003, 0.0, 0.0, 0.0, 0.003)"
2021/11/08/17:20:21.526535,59987,1636388421,526185203,imu_iphone,-0.0209505107338,-0.019120365741,-0.327207113266,0.944526861842,"(0.00872665, 0.0, 0.0, 0.0, 0.00872665, 0.0, 0.0, 0.0, 0.00872665)",0.358323484659,-0.0193778276443,1.02557957172,"(0.000872665, 0.0, 0.0, 0.0, 0.000872665, 0.0, 0.0, 0.0, 0.000872665)",-0.157073863707,-0.185859048553,-0.242263008356,"(0.003, 0.0, 0.0, 0.0, 0.003, 0.0, 0.0, 0.0, 0.003)"
2021/11/08/17:20:21.571990,59988,1636388421,571668615,imu_iphone,-0.018868840731,-0.0150038687763,-0.312762094459,0.949525525218,"(0.00872665, 0.0, 0.0, 0.0, 0.00872665, 0.0, 0.0, 0.0, 0.00872665)",0.336755812168,-0.0304177198559,0.992319822311,"(0.000872665, 0.0, 0.0, 0.0, 0.000872665, 0.0, 0.0, 0.0, 0.000872665)",-0.166114463098,-0.080059126541,-0.22590600729,"(0.003, 0.0, 0.0, 0.0, 0.003, 0.0, 0.0, 0.0, 0.003)"
2021/11/08/17:20:21.585969,59989,1636388421,585375887,imu_iphone,-0.0172977047873,-0.0110412611977,-0.298896423039,0.954064886816,"(0.00872665, 0.0, 0.0, 0.0, 0.00872665, 0.0, 0.0, 0.0, 0.00872665)",0.310615539551,-0.0349891334772,0.936740100384,"(0.000872665, 0.0, 0.0, 0.0, 0.000872665, 0.0, 0.0, 0.0, 0.000872665)",-0.15544685768,0.00233651082963,-0.207048736811,"(0.003, 0.0, 0.0, 0.0, 0.003, 0.0, 0.0, 0.0, 0.003)"
2021/11/08/17:20:21.615674,59990,1636388421,615380369,imu_iphone,-0.0161781745096,-0.0072671066411,-0.285877916839,0.95810191133,"(0.00872665, 0.0, 0.0, 0.0, 0.00872665, 0.0, 0.0, 0.0, 0.00872665)",0.288222074509,-0.0411213263869,0.866205513477,"(0.000872665, 0.0, 0.0, 0.0, 0.000872665, 0.0, 0.0, 0.0, 0.000872665)",-0.153826886583,0.0816091137752,-0.186995126009,"(0.003, 0.0, 0.0, 0.0, 0.003, 0.0, 0.0, 0.0, 0.003)"
2021/11/08/17:20:21.677409,59991,1636388421,676967309,imu_iphone,-0.0154250727261,-0.00369697195389,-0.273966815318,0.96160833172,"(0.00872665, 0.0, 0.0, 0.0, 0.00872665, 0.0, 0.0, 0.0, 0.00872665)",0.268739789724,-0.0434974730015,0.776234030724,"(0.000872665, 0.0, 0.0, 0.0, 0.000872665, 0.0, 0.0, 0.0, 0.000872665)",-0.140495399348,0.14910985549,-0.16375595212,"(0.003, 0.0, 0.0, 0.0, 0.003, 0.0, 0.0, 0.0, 0.003)"
2021/11/08/17:20:21.681256,59992,1636388421,680600594,imu_iphone,-0.0149781150101,-0.00034477573222,-0.26342654036,0.964563110965,"(0.00872665, 0.0, 0.0, 0.0, 0.00872665, 0.0, 0.0, 0.0, 0.00872665)",0.243337780237,-0.0452389158309,0.670615196228,"(0.000872665, 0.0, 0.0, 0.0, 0.000872665, 0.0, 0.0, 0.0, 0.000872665)",-0.125478890743,0.234899426959,-0.152445682883,"(0.003, 0.0, 0.0, 0.0, 0.003, 0.0, 0.0, 0.0, 0.003)"
2021/11/08/17:20:21.704672,59993,1636388421,704324136,imu_iphone,-0.0147606345946,0.00273764861217,-0.254448710309,0.966969742427,"(0.00872665, 0.0, 0.0, 0.0, 0.00872665, 0.0, 0.0, 0.0, 0.00872665)",0.219616249204,-0.0437451936305,0.557117819786,"(0.000872665, 0.0, 0.0, 0.0, 0.000872665, 0.0, 0.0, 0.0, 0.000872665)",-0.12153181918,0.299182455037,-0.133603030443,"(0.003, 0.0, 0.0, 0.0, 0.003, 0.0, 0.0, 0.0, 0.003)"
2021/11/08/17:20:21.740144,59994,1636388421,739755884,imu_iphone,-0.0146949028847,0.0055474638399,-0.247122775918,0.968856862027,"(0.00872665, 0.0, 0.0, 0.0, 0.00872665, 0.0, 0.0, 0.0, 0.00872665)",0.192490100861,-0.042619407177,0.438119083643,"(0.000872665, 0.0, 0.0, 0.0, 0.000872665, 0.0, 0.0, 0.0, 0.000872665)",-0.104214705303,0.38462454658,-0.120699394941,"(0.003, 0.0, 0.0, 0.0, 0.003, 0.0, 0.0, 0.0, 0.003)"
2021/11/08/17:20:21.780464,59995,1636388421,779803022,imu_iphone,-0.0147158956051,0.0080282677288,-0.241546326515,0.970244485416,"(0.00872665, 0.0, 0.0, 0.0, 0.00872665, 0.0, 0.0, 0.0, 0.00872665)",0.164842635393,-0.0372932292521,0.315038025379,"(0.000872665, 0.0, 0.0, 0.0, 0.000872665, 0.0, 0.0, 0.0, 0.000872665)",-0.0907681923732,0.457010043114,-0.0903868442774,"(0.003, 0.0, 0.0, 0.0, 0.003, 0.0, 0.0, 0.0, 0.003)"
2021/11/08/17:20:21.797681,59996,1636388421,794777673,imu_iphone,-0.0147667315049,0.0101269579716,-0.237678529801,0.971178822275,"(0.00872665, 0.0, 0.0, 0.0, 0.00872665, 0.0, 0.0, 0.0, 0.00872665)",0.13234937191,-0.0293398667127,0.20182287693,"(0.000872665, 0.0, 0.0, 0.0, 0.000872665, 0.0, 0.0, 0.0, 0.000872665)",-0.085292019099,0.526766704582,-0.0730516040325,"(0.003, 0.0, 0.0, 0.0, 0.003, 0.0, 0.0, 0.0, 0.003)"
2021/11/08/17:20:21.824222,59997,1636388421,823585152,imu_iphone,-0.0148361203626,0.0117846099702,-0.235430728103,0.971706429311,"(0.00872665, 0.0, 0.0, 0.0, 0.00872665, 0.0, 0.0, 0.0, 0.00872665)",0.0961241722107,-0.0237303748727,0.0973364785314,"(0.000872665, 0.0, 0.0, 0.0, 0.000872665, 0.0, 0.0, 0.0, 0.000872665)",-0.0647805347666,0.600418634936,-0.0591352307796,"(0.003, 0.0, 0.0, 0.0, 0.003, 0.0, 0.0, 0.0, 0.003)"
2021/11/08/17:20:21.886203,59998,1636388421,886038217,imu_iphone,-0.0149103873851,0.0129308755106,-0.234639651491,0.971882043643,"(0.00872665, 0.0, 0.0, 0.0, 0.00872665, 0.0, 0.0, 0.0, 0.00872665)",0.0542733259499,-0.0184990130365,0.00230493396521,"(0.000872665, 0.0, 0.0, 0.0, 0.000872665, 0.0, 0.0, 0.0, 0.000872665)",-0.0522316425294,0.679685463756,-0.0341372144222,"(0.003, 0.0, 0.0, 0.0, 0.003, 0.0, 0.0, 0.0, 0.003)"
2021/11/08/17:20:21.889389,59999,1636388421,889219392,imu_iphone,-0.0151398506734,0.0131977152613,-0.235106210894,0.971762149311,"(0.00872665, 0.0, 0.0, 0.0, 0.00872665, 0.0, 0.0, 0.0, 0.00872665)",0.00769713427871,-0.0133341951296,-0.0661293938756,"(0.000872665, 0.0, 0.0, 0.0, 0.000872665, 0.0, 0.0, 0.0, 0.000872665)",-0.0296276589856,0.723963650465,-0.0186917942762,"(0.003, 0.0, 0.0, 0.0, 0.003, 0.0, 0.0, 0.0, 0.003)"
2021/11/08/17:20:21.913542,60000,1636388421,913025463,imu_iphone,-0.0156456270596,0.0121696515769,-0.236525729364,0.971423024888,"(0.00872665, 0.0, 0.0, 0.0, 0.00872665, 0.0, 0.0, 0.0, 0.00872665)",-0.0451565124094,-0.00493647623807,-0.122146070004,"(0.000872665, 0.0, 0.0, 0.0, 0.000872665, 0.0, 0.0, 0.0, 0.000872665)",-0.00608026374131,0.748814463168,-0.00695994079113,"(0.003, 0.0, 0.0, 0.0, 0.003, 0.0, 0.0, 0.0, 0.003)"
2021/11/08/17:20:21.943616,60001,1636388421,943059160,imu_iphone,-0.0162128103769,0.0103524764225,-0.238591937886,0.970929378579,"(0.00872665, 0.0, 0.0, 0.0, 0.00872665, 0.0, 0.0, 0.0, 0.00872665)",-0.0964160338044,0.0024053286761,-0.153918668628,"(0.000872665, 0.0, 0.0, 0.0, 0.000872665, 0.0, 0.0, 0.0, 0.000872665)",0.0338321359456,0.709144174755,-0.0189356231689,"(0.003, 0.0, 0.0, 0.0, 0.003, 0.0, 0.0, 0.0, 0.003)"
2021/11/08/17:20:21.991651,60002,1636388421,991210841,imu_iphone,-0.0168021248358,0.00775109063066,-0.24104828565,0.97033671124,"(0.00872665, 0.0, 0.0, 0.0, 0.00872665, 0.0, 0.0, 0.0, 0.00872665)",-0.14867657423,0.0146395266056,-0.170618101954,"(0.000872665, 0.0, 0.0, 0.0, 0.000872665, 0.0, 0.0, 0.0, 0.000872665)",0.0495247836784,0.631530865431,-0.0264767771959,"(0.003, 0.0, 0.0, 0.0, 0.003, 0.0, 0.0, 0.0, 0.003)"
2021/11/08/17:20:22.003055,60003,1636388422,2742106,imu_iphone,-0.0174112654054,0.00444006713788,-0.243763698387,0.969668187056,"(0.00872665, 0.0, 0.0, 0.0, 0.00872665, 0.0, 0.0, 0.0, 0.00872665)",-0.195125833154,0.0218896456063,-0.185108721256,"(0.000872665, 0.0, 0.0, 0.0, 0.000872665, 0.0, 0.0, 0.0, 0.000872665)",0.0532545763627,0.514183752313,-0.0660600882769,"(0.003, 0.0, 0.0, 0.0, 0.003, 0.0, 0.0, 0.0, 0.003)"
2021/11/08/17:20:22.032833,60004,1636388422,32498977,imu_iphone,-0.0179784631738,0.000544827603674,-0.246722740691,0.968919174777,"(0.00872665, 0.0, 0.0, 0.0, 0.00872665, 0.0, 0.0, 0.0, 0.00872665)",-0.236099615693,0.034507509321,-0.202292144299,"(0.000872665, 0.0, 0.0, 0.0, 0.000872665, 0.0, 0.0, 0.0, 0.000872665)",0.043536759764,0.383322956376,-0.0680189055204,"(0.003, 0.0, 0.0, 0.0, 0.003, 0.0, 0.0, 0.0, 0.003)"
2021/11/08/17:20:22.097272,60005,1636388422,96305678,imu_iphone,-0.0185477715537,-0.0037560489317,-0.249939327843,0.968076548969,"(0.00872665, 0.0, 0.0, 0.0, 0.00872665, 0.0, 0.0, 0.0, 0.00872665)",-0.273490309715,0.0422992408276,-0.218725860119,"(0.000872665, 0.0, 0.0, 0.0, 0.000872665, 0.0, 0.0, 0.0, 0.000872665)",-0.00098291695118,0.225697882958,-0.113754656911,"(0.003, 0.0, 0.0, 0.0, 0.003, 0.0, 0.0, 0.0, 0.003)"
2021/11/08/17:20:22.101536,60006,1636388422,100954760,imu_iphone,-0.0191120708806,-0.00805474950451,-0.25343220204,0.967130791944,"(0.00872665, 0.0, 0.0, 0.0, 0.00872665, 0.0, 0.0, 0.0, 0.00872665)",-0.304985910654,0.0424966774881,-0.237693056464,"(0.000872665, 0.0, 0.0, 0.0, 0.000872665, 0.0, 0.0, 0.0, 0.000872665)",-0.0350041372329,0.0853362203948,-0.157080186009,"(0.003, 0.0, 0.0, 0.0, 0.003, 0.0, 0.0, 0.0, 0.003)"
2021/11/08/17:20:22.121683,60007,1636388422,120631844,imu_iphone,-0.0197807677805,-0.0125447530794,-0.25725659548,0.966059208578,"(0.00872665, 0.0, 0.0, 0.0, 0.00872665, 0.0, 0.0, 0.0, 0.00872665)",-0.327747315168,0.0467748977244,-0.268750727177,"(0.000872665, 0.0, 0.0, 0.0, 0.000872665, 0.0, 0.0, 0.0, 0.000872665)",-0.0868635313958,-0.0496135882661,-0.176619241834,"(0.003, 0.0, 0.0, 0.0, 0.003, 0.0, 0.0, 0.0, 0.003)"
2021/11/08/17:20:22.152086,60008,1636388422,151464164,imu_iphone,-0.020592795812,-0.0172941192819,-0.261425163927,0.964849073101,"(0.00872665, 0.0, 0.0, 0.0, 0.00872665, 0.0, 0.0, 0.0, 0.00872665)",-0.347447574139,0.0476752892137,-0.285613358021,"(0.000872665, 0.0, 0.0, 0.0, 0.000872665, 0.0, 0.0, 0.0, 0.000872665)",-0.114262323137,-0.216856271625,-0.208783605695,"(0.003, 0.0, 0.0, 0.0, 0.003, 0.0, 0.0, 0.0, 0.003)"
2021/11/08/17:20:22.198386,60009,1636388422,197988618,imu_iphone,-0.0216361558605,-0.022264037827,-0.266034278333,0.963463518838,"(0.00872665, 0.0, 0.0, 0.0, 0.00872665, 0.0, 0.0, 0.0, 0.00872665)",-0.363062828779,0.0424250140786,-0.323065489531,"(0.000872665, 0.0, 0.0, 0.0, 0.000872665, 0.0, 0.0, 0.0, 0.000872665)",-0.151045055464,-0.324976186082,-0.237754805088,"(0.003, 0.0, 0.0, 0.0, 0.003, 0.0, 0.0, 0.0, 0.003)"
2021/11/08/17:20:22.212077,60010,1636388422,211621997,imu_iphone,-0.0229394319215,-0.027339794848,-0.27116422758,0.96187123866,"(0.00872665, 0.0, 0.0, 0.0, 0.00872665, 0.0, 0.0, 0.0, 0.00872665)",-0.373566269875,0.0359388366342,-0.36153703928,"(0.000872665, 0.0, 0.0, 0.0, 0.000872665, 0.0, 0.0, 0.0, 0.000872665)",-0.180620381869,-0.453430962414,-0.271376879811,"(0.003, 0.0, 0.0, 0.0, 0.003, 0.0, 0.0, 0.0, 0.003)"
2021/11/08/17:20:22.241077,60011,1636388422,240644097,imu_iphone,-0.0244964168919,-0.0324644278308,-0.276862474084,0.960048518008,"(0.00872665, 0.0, 0.0, 0.0, 0.00872665, 0.0, 0.0, 0.0, 0.00872665)",-0.381996184587,0.0339203551412,-0.405551195145,"(0.000872665, 0.0, 0.0, 0.0, 0.000872665, 0.0, 0.0, 0.0, 0.000872665)",-0.149177290332,-0.657151756436,-0.280485672355,"(0.003, 0.0, 0.0, 0.0, 0.003, 0.0, 0.0, 0.0, 0.003)"
2021/11/08/17:20:22.302648,60012,1636388422,302257765,imu_iphone,-0.0263181505366,-0.0376012986557,-0.283091762676,0.957994024614,"(0.00872665, 0.0, 0.0, 0.0, 0.00872665, 0.0, 0.0, 0.0, 0.00872665)",-0.386401057243,0.0293522346765,-0.442670881748,"(0.000872665, 0.0, 0.0, 0.0, 0.000872665, 0.0, 0.0, 0.0, 0.000872665)",-0.15006957544,-0.798139381707,-0.31286462903,"(0.003, 0.0, 0.0, 0.0, 0.003, 0.0, 0.0, 0.0, 0.003)"
2021/11/08/17:20:22.306019,60013,1636388422,305626590,imu_iphone,-0.0284152505496,-0.0426337662287,-0.28990777647,0.955682173453,"(0.00872665, 0.0, 0.0, 0.0, 0.00872665, 0.0, 0.0, 0.0, 0.00872665)",-0.384992390871,0.0285302381963,-0.484428316355,"(0.000872665, 0.0, 0.0, 0.0, 0.000872665, 0.0, 0.0, 0.0, 0.000872665)",-0.124039543793,-0.941569462046,-0.314656215906,"(0.003, 0.0, 0.0, 0.0, 0.003, 0.0, 0.0, 0.0, 0.003)"
2021/11/08/17:20:22.331524,60014,1636388422,331004694,imu_iphone,-0.0307771046091,-0.0475070738883,-0.297330092312,0.953095306865,"(0.00872665, 0.0, 0.0, 0.0, 0.00872665, 0.0, 0.0, 0.0, 0.00872665)",-0.380229920149,0.022409202531,-0.528120160103,"(0.000872665, 0.0, 0.0, 0.0, 0.000872665, 0.0, 0.0, 0.0, 0.000872665)",-0.103978221975,-1.09440581203,-0.329460781217,"(0.003, 0.0, 0.0, 0.0, 0.003, 0.0, 0.0, 0.0, 0.003)"
2021/11/08/17:20:22.360430,60015,1636388422,359992207,imu_iphone,-0.0333936299092,-0.0521418944982,-0.305395959073,0.950210185433,"(0.00872665, 0.0, 0.0, 0.0, 0.00872665, 0.0, 0.0, 0.0, 0.00872665)",-0.374629944563,0.0227057579905,-0.57506942749,"(0.000872665, 0.0, 0.0, 0.0, 0.000872665, 0.0, 0.0, 0.0, 0.000872665)",-0.0868407272547,-1.23579528719,-0.326398594379,"(0.003, 0.0, 0.0, 0.0, 0.003, 0.0, 0.0, 0.0, 0.003)"
2021/11/08/17:20:22.407540,60016,1636388422,407030421,imu_iphone,-0.0362746697114,-0.056492142873,-0.314096366995,0.94701439185,"(0.00872665, 0.0, 0.0, 0.0, 0.00872665, 0.0, 0.0, 0.0, 0.00872665)",-0.365349680185,0.0214100331068,-0.617738902569,"(0.000872665, 0.0, 0.0, 0.0, 0.000872665, 0.0, 0.0, 0.0, 0.000872665)",-0.0655745866522,-1.3710893324,-0.339908001423,"(0.003, 0.0, 0.0, 0.0, 0.003, 0.0, 0.0, 0.0, 0.003)"
2021/11/08/17:20:22.420144,60017,1636388422,419457051,imu_iphone,-0.0393898136408,-0.0605201479366,-0.323349105373,0.943520593485,"(0.00872665, 0.0, 0.0, 0.0, 0.00872665, 0.0, 0.0, 0.0, 0.00872665)",-0.352116495371,0.0191555470228,-0.656808435917,"(0.000872665, 0.0, 0.0, 0.0, 0.000872665, 0.0, 0.0, 0.0, 0.000872665)",-0.0521912236512,-1.4917815645,-0.34764328301,"(0.003, 0.0, 0.0, 0.0, 0.003, 0.0, 0.0, 0.0, 0.003)"
2021/11/08/17:20:22.450744,60018,1636388422,450466321,imu_iphone,-0.0427181520736,-0.0641745538852,-0.333068557816,0.93974577515,"(0.00872665, 0.0, 0.0, 0.0, 0.00872665, 0.0, 0.0, 0.0, 0.00872665)",-0.33662673831,0.0178373791277,-0.685892760754,"(0.000872665, 0.0, 0.0, 0.0, 0.000872665, 0.0, 0.0, 0.0, 0.000872665)",-0.0192835325003,-1.58633498847,-0.34592887938,"(0.003, 0.0, 0.0, 0.0, 0.003, 0.0, 0.0, 0.0, 0.003)"
2021/11/08/17:20:22.526822,60019,1636388422,526240760,imu_iphone,-0.0462346016021,-0.0674605027454,-0.343133542233,0.935719410068,"(0.00872665, 0.0, 0.0, 0.0, 0.00872665, 0.0, 0.0, 0.0, 0.00872665)",-0.322502017021,0.0147595144808,-0.705285668373,"(0.000872665, 0.0, 0.0, 0.0, 0.000872665, 0.0, 0.0, 0.0, 0.000872665)",0.00321300845593,-1.68702360347,-0.363096889257,"(0.003, 0.0, 0.0, 0.0, 0.003, 0.0, 0.0, 0.0, 0.003)"
2021/11/08/17:20:22.532073,60020,1636388422,530169237,imu_iphone,-0.049942564071,-0.0703549628942,-0.353398216976,0.931485705595,"(0.00872665, 0.0, 0.0, 0.0, 0.00872665, 0.0, 0.0, 0.0, 0.00872665)",-0.307573795319,0.0087968185544,-0.715342104435,"(0.000872665, 0.0, 0.0, 0.0, 0.000872665, 0.0, 0.0, 0.0, 0.000872665)",0.026447650753,-1.77248285294,-0.363999699354,"(0.003, 0.0, 0.0, 0.0, 0.003, 0.0, 0.0, 0.0, 0.003)"
2021/11/08/17:20:22.539373,60021,1636388422,538389548,imu_iphone,-0.0537518506327,-0.0728787248811,-0.363696790807,0.927105212136,"(0.00872665, 0.0, 0.0, 0.0, 0.00872665, 0.0, 0.0, 0.0, 0.00872665)",-0.292741805315,0.00747770629823,-0.71089977026,"(0.000872665, 0.0, 0.0, 0.0, 0.000872665, 0.0, 0.0, 0.0, 0.000872665)",0.0565263493359,-1.86997377187,-0.362525616288,"(0.003, 0.0, 0.0, 0.0, 0.003, 0.0, 0.0, 0.0, 0.003)"
2021/11/08/17:20:22.568852,60022,1636388422,568606928,imu_iphone,-0.0576332248946,-0.0750137402325,-0.373854596818,0.922650578823,"(0.00872665, 0.0, 0.0, 0.0, 0.00872665, 0.0, 0.0, 0.0, 0.00872665)",-0.277420639992,0.00136306416243,-0.697466015816,"(0.000872665, 0.0, 0.0, 0.0, 0.000872665, 0.0, 0.0, 0.0, 0.000872665)",0.0875648683682,-1.95894939065,-0.367622634172,"(0.003, 0.0, 0.0, 0.0, 0.003, 0.0, 0.0, 0.0, 0.003)"
2021/11/08/17:20:22.615623,60023,1636388422,615331902,imu_iphone,-0.0615187001082,-0.0767809603841,-0.383718341006,0.918194079939,"(0.00872665, 0.0, 0.0, 0.0, 0.00872665, 0.0, 0.0, 0.0, 0.00872665)",-0.25366088748,-0.00304032675922,-0.672402858734,"(0.000872665, 0.0, 0.0, 0.0, 0.000872665, 0.0, 0.0, 0.0, 0.000872665)",0.127245243229,-2.03915213943,-0.349337221384,"(0.003, 0.0, 0.0, 0.0, 0.003, 0.0, 0.0, 0.0, 0.003)"
2021/11/08/17:20:22.628750,60024,1636388422,628408608,imu_iphone,-0.0653597967894,-0.0781915170124,-0.393177875191,0.913797210595,"(0.00872665, 0.0, 0.0, 0.0, 0.00872665, 0.0, 0.0, 0.0, 0.00872665)",-0.235999196768,-0.00684027094394,-0.643802821636,"(0.000872665, 0.0, 0.0, 0.0, 0.000872665, 0.0, 0.0, 0.0, 0.000872665)",0.164624811821,-2.12311610967,-0.36932534337,"(0.003, 0.0, 0.0, 0.0, 0.003, 0.0, 0.0, 0.0, 0.003)"
2021/11/08/17:20:22.658317,60025,1636388422,657954259,imu_iphone,-0.0690995218061,-0.079270572342,-0.402133848024,0.909521742852,"(0.00872665, 0.0, 0.0, 0.0, 0.00872665, 0.0, 0.0, 0.0, 0.00872665)",-0.215030938387,-0.0106502370909,-0.604042887688,"(0.000872665, 0.0, 0.0, 0.0, 0.000872665, 0.0, 0.0, 0.0, 0.000872665)",0.212605016939,-2.21063284814,-0.363813757896,"(0.003, 0.0, 0.0, 0.0, 0.003, 0.0, 0.0, 0.0, 0.003)"
2021/11/08/17:20:22.719414,60026,1636388422,719221211,imu_iphone,-0.0726308006777,-0.0800040649083,-0.410492238335,0.905439251776,"(0.00872665, 0.0, 0.0, 0.0, 0.00872665, 0.0, 0.0, 0.0, 0.00872665)",-0.187939509749,-0.0138810388744,-0.562673985958,"(0.000872665, 0.0, 0.0, 0.0, 0.000872665, 0.0, 0.0, 0.0, 0.000872665)",0.264367310777,-2.29884935215,-0.369488480687,"(0.003, 0.0, 0.0, 0.0, 0.003, 0.0, 0.0, 0.0, 0.003)"
2021/11/08/17:20:22.722796,60027,1636388422,722664600,imu_iphone,-0.0758658387074,-0.0803572341887,-0.418204108524,0.901605464183,"(0.00872665, 0.0, 0.0, 0.0, 0.00872665, 0.0, 0.0, 0.0, 0.00872665)",-0.155196905136,-0.0146689470857,-0.51980471611,"(0.000872665, 0.0, 0.0, 0.0, 0.000872665, 0.0, 0.0, 0.0, 0.000872665)",0.319539079517,-2.36984317482,-0.347991777062,"(0.003, 0.0, 0.0, 0.0, 0.003, 0.0, 0.0, 0.0, 0.003)"
2021/11/08/17:20:22.747598,60028,1636388422,747310820,imu_iphone,-0.0787325774487,-0.080384689227,-0.425199295251,0.898078527916,"(0.00872665, 0.0, 0.0, 0.0, 0.00872665, 0.0, 0.0, 0.0, 0.00872665)",-0.121511377394,-0.0111853387207,-0.465278744698,"(0.000872665, 0.0, 0.0, 0.0, 0.000872665, 0.0, 0.0, 0.0, 0.000872665)",0.378691998124,-2.44519828945,-0.348241453171,"(0.003, 0.0, 0.0, 0.0, 0.003, 0.0, 0.0, 0.0, 0.003)"
2021/11/08/17:20:22.777942,60029,1636388422,776908161,imu_iphone,-0.0810870990527,-0.0801015545985,-0.431345408185,0.894957966698,"(0.00872665, 0.0, 0.0, 0.0, 0.00872665, 0.0, 0.0, 0.0, 0.00872665)",-0.0830719918013,-0.00461326306686,-0.410792082548,"(0.000872665, 0.0, 0.0, 0.0, 0.000872665, 0.0, 0.0, 0.0, 0.000872665)",0.435759726539,-2.48927430868,-0.322100890875,"(0.003, 0.0, 0.0, 0.0, 0.003, 0.0, 0.0, 0.0, 0.003)"
2021/11/08/17:20:22.825281,60030,1636388422,824879562,imu_iphone,-0.0828790403513,-0.0795035532648,-0.436652509105,0.892269486187,"(0.00872665, 0.0, 0.0, 0.0, 0.00872665, 0.0, 0.0, 0.0, 0.00872665)",-0.0377129875124,0.00453881267458,-0.349043130875,"(0.000872665, 0.0, 0.0, 0.0, 0.000872665, 0.0, 0.0, 0.0, 0.000872665)",0.490471246317,-2.55959818661,-0.336620696783,"(0.003, 0.0, 0.0, 0.0, 0.003, 0.0, 0.0, 0.0, 0.003)"
2021/11/08/17:20:22.836481,60031,1636388422,836227886,imu_iphone,-0.0839867354514,-0.0786241250206,-0.440985712896,0.890110148383,"(0.00872665, 0.0, 0.0, 0.0, 0.00872665, 0.0, 0.0, 0.0, 0.00872665)",0.00285862013698,0.0165223106742,-0.276404291391,"(0.000872665, 0.0, 0.0, 0.0, 0.000872665, 0.0, 0.0, 0.0, 0.000872665)",0.524069347456,-2.5789071545,-0.322400268316,"(0.003, 0.0, 0.0, 0.0, 0.003, 0.0, 0.0, 0.0, 0.003)"
2021/11/08/17:20:22.866804,60032,1636388422,866557267,imu_iphone,-0.0843663747668,-0.0775015157521,-0.444228433307,0.888558905704,"(0.00872665, 0.0, 0.0, 0.0, 0.00872665, 0.0, 0.0, 0.0, 0.00872665)",0.0498758852482,0.0289351828396,-0.20010855794,"(0.000872665, 0.0, 0.0, 0.0, 0.000872665, 0.0, 0.0, 0.0, 0.000872665)",0.529171554744,-2.58715055913,-0.31422819972,"(0.003, 0.0, 0.0, 0.0, 0.003, 0.0, 0.0, 0.0, 0.003)"
2021/11/08/17:20:22.927997,60033,1636388422,927739433,imu_iphone,-0.0839696649564,-0.0761778122014,-0.4462860522,0.887679444342,"(0.00872665, 0.0, 0.0, 0.0, 0.00872665, 0.0, 0.0, 0.0, 0.00872665)",0.0976164489985,0.0395500808954,-0.114353626966,"(0.000872665, 0.0, 0.0, 0.0, 0.000872665, 0.0, 0.0, 0.0, 0.000872665)",0.529268399253,-2.55385972917,-0.322548202872,"(0.003, 0.0, 0.0, 0.0, 0.003, 0.0, 0.0, 0.0, 0.003)"
2021/11/08/17:20:22.932112,60034,1636388422,931783548,imu_iphone,-0.0828327870941,-0.0746570231924,-0.447052597576,0.887529736556,"(0.00872665, 0.0, 0.0, 0.0, 0.00872665, 0.0, 0.0, 0.0, 0.00872665)",0.1382945925,0.0469711497426,-0.0202485416085,"(0.000872665, 0.0, 0.0, 0.0, 0.000872665, 0.0, 0.0, 0.0, 0.000872665)",0.501210242584,-2.48296925604,-0.335582816005,"(0.003, 0.0, 0.0, 0.0, 0.003, 0.0, 0.0, 0.0, 0.003)"
2021/11/08/17:20:22.955862,60035,1636388422,955515822,imu_iphone,-0.0786052924753,-0.0699886398991,-0.446267209914,0.888689133294,"(0.00872665, 0.0, 0.0, 0.0, 0.00872665, 0.0, 0.0, 0.0, 0.00872665)",0.17887404561,0.0532114952803,0.0826933085918,"(0.000872665, 0.0, 0.0, 0.0, 0.000872665, 0.0, 0.0, 0.0, 0.000872665)",0.452099405229,-2.33069884345,-0.321218546033,"(0.003, 0.0, 0.0, 0.0, 0.003, 0.0, 0.0, 0.0, 0.003)"
2021/11/08/17:20:22.986698,60036,1636388422,986169188,imu_iphone,-0.0738834024958,-0.0653171538635,-0.444074195657,0.890546473239,"(0.00872665, 0.0, 0.0, 0.0, 0.00872665, 0.0, 0.0, 0.0, 0.00872665)",0.215621650219,0.0584435425699,0.181266218424,"(0.000872665, 0.0, 0.0, 0.0, 0.000872665, 0.0, 0.0, 0.0, 0.000872665)",0.40584493272,-2.164592603,-0.311604554057,"(0.003, 0.0, 0.0, 0.0, 0.003, 0.0, 0.0, 0.0, 0.003)"
2021/11/08/17:20:23.034495,60037,1636388423,34085042,imu_iphone,-0.0688437958161,-0.0606761531485,-0.440537013195,0.893031956999,"(0.00872665, 0.0, 0.0, 0.0, 0.00872665, 0.0, 0.0, 0.0, 0.00872665)",0.248970940709,0.0598933175206,0.27924785018,"(0.000872665, 0.0, 0.0, 0.0, 0.000872665, 0.0, 0.0, 0.0, 0.000872665)",0.351274257749,-1.99406572133,-0.325238506794,"(0.003, 0.0, 0.0, 0.0, 0.003, 0.0, 0.0, 0.0, 0.003)"
2021/11/08/17:20:23.046388,60038,1636388423,45953111,imu_iphone,-0.0636137156901,-0.0559999112011,-0.435752627217,0.896067493549,"(0.00872665, 0.0, 0.0, 0.0, 0.00872665, 0.0, 0.0, 0.0, 0.00872665)",0.281148254871,0.0597865730524,0.368006557226,"(0.000872665, 0.0, 0.0, 0.0, 0.000872665, 0.0, 0.0, 0.0, 0.000872665)",0.307303926945,-1.81893474206,-0.314563245177,"(0.003, 0.0, 0.0, 0.0, 0.003, 0.0, 0.0, 0.0, 0.003)"
2021/11/08/17:20:23.075455,60039,1636388423,75002816,imu_iphone,-0.0598724812206,-0.0536375265364,-0.429942114544,0.899270860131,"(0.00872665, 0.0, 0.0, 0.0, 0.00872665, 0.0, 0.0, 0.0, 0.00872665)",0.305617123842,0.0631494373083,0.441500067711,"(0.000872665, 0.0, 0.0, 0.0, 0.000872665, 0.0, 0.0, 0.0, 0.000872665)",0.261875008196,-1.68672671109,-0.316284080744,"(0.003, 0.0, 0.0, 0.0, 0.003, 0.0, 0.0, 0.0, 0.003)"
2021/11/08/17:20:23.136830,60040,1636388423,136544747,imu_iphone,-0.0558786506446,-0.0510537654993,-0.423161678733,0.902887192889,"(0.00872665, 0.0, 0.0, 0.0, 0.00872665, 0.0, 0.0, 0.0, 0.00872665)",0.326450973749,0.0633522793651,0.505988657475,"(0.000872665, 0.0, 0.0, 0.0, 0.000872665, 0.0, 0.0, 0.0, 0.000872665)",0.226056500003,-1.55454060718,-0.316875818968,"(0.003, 0.0, 0.0, 0.0, 0.003, 0.0, 0.0, 0.0, 0.003)"
2021/11/08/17:20:23.139975,60041,1636388423,139746806,imu_iphone,-0.0517415209251,-0.0482213145941,-0.415618628076,0.906784801277,"(0.00872665, 0.0, 0.0, 0.0, 0.00872665, 0.0, 0.0, 0.0, 0.00872665)",0.344802170992,0.060993373394,0.554421544075,"(0.000872665, 0.0, 0.0, 0.0, 0.000872665, 0.0, 0.0, 0.0, 0.000872665)",0.177049669996,-1.41051199123,-0.311604554057,"(0.003, 0.0, 0.0, 0.0, 0.003, 0.0, 0.0, 0.0, 0.003)"
2021/11/08/17:20:23.164769,60042,1636388423,164422171,imu_iphone,-0.047571651914,-0.0451145284391,-0.407526237362,0.910836968464,"(0.00872665, 0.0, 0.0, 0.0, 0.00872665, 0.0, 0.0, 0.0, 0.00872665)",0.357403069735,0.0573156177998,0.586341738701,"(0.000872665, 0.0, 0.0, 0.0, 0.000872665, 0.0, 0.0, 0.0, 0.000872665)",0.116988313347,-1.26233389869,-0.318297277093,"(0.003, 0.0, 0.0, 0.0, 0.003, 0.0, 0.0, 0.0, 0.003)"
2021/11/08/17:20:23.194942,60043,1636388423,194014066,imu_iphone,-0.0434823362471,-0.0417321935801,-0.399187837282,0.914886212061,"(0.00872665, 0.0, 0.0, 0.0, 0.00872665, 0.0, 0.0, 0.0, 0.00872665)",0.363279759884,0.0510547459126,0.564992725849,"(0.000872665, 0.0, 0.0, 0.0, 0.000872665, 0.0, 0.0, 0.0, 0.000872665)",0.00624146416783,-1.02962670252,-0.270950033069,"(0.003, 0.0, 0.0, 0.0, 0.003, 0.0, 0.0, 0.0, 0.003)"
2021/11/08/17:20:23.244490,60044,1636388423,244243913,imu_iphone,-0.0395604525359,-0.0381139129015,-0.390691091758,0.918881260588,"(0.00872665, 0.0, 0.0, 0.0, 0.00872665, 0.0, 0.0, 0.0, 0.00872665)",0.371104866266,0.0418070629239,0.618091225624,"(0.000872665, 0.0, 0.0, 0.0, 0.000872665, 0.0, 0.0, 0.0, 0.000872665)",0.0116576303914,-0.956400193647,-0.317719572186,"(0.003, 0.0, 0.0, 0.0, 0.003, 0.0, 0.0, 0.0, 0.003)"
2021/11/08/17:20:23.253655,60045,1636388423,253432238,imu_iphone,-0.0358540488917,-0.0343485877781,-0.381719855247,0.922943451034,"(0.00872665, 0.0, 0.0, 0.0, 0.00872665, 0.0, 0.0, 0.0, 0.00872665)",0.365295320749,0.0334676131606,0.648116528988,"(0.000872665, 0.0, 0.0, 0.0, 0.000872665, 0.0, 0.0, 0.0, 0.000872665)",-0.0229354841262,-0.805040046349,-0.285327166915,"(0.003, 0.0, 0.0, 0.0, 0.003, 0.0, 0.0, 0.0, 0.003)"
2021/11/08/17:20:23.283778,60046,1636388423,283474113,imu_iphone,-0.0324352044831,-0.0304839018082,-0.372561868235,0.926939234027,"(0.00872665, 0.0, 0.0, 0.0, 0.00872665, 0.0, 0.0, 0.0, 0.00872665)",0.361077129841,0.0247454959899,0.644540131092,"(0.000872665, 0.0, 0.0, 0.0, 0.000872665, 0.0, 0.0, 0.0, 0.000872665)",-0.0773689687997,-0.655569719151,-0.29034992516,"(0.003, 0.0, 0.0, 0.0, 0.003, 0.0, 0.0, 0.0, 0.003)"
2021/11/08/17:20:23.348239,60047,1636388423,347910115,imu_iphone,-0.0293587783157,-0.0265625596514,-0.363271665874,0.930841656424,"(0.00872665, 0.0, 0.0, 0.0, 0.00872665, 0.0, 0.0, 0.0, 0.00872665)",0.351279586554,0.0148860160261,0.66542339325,"(0.000872665, 0.0, 0.0, 0.0, 0.000872665, 0.0, 0.0, 0.0, 0.000872665)",-0.072118242234,-0.508602365702,-0.237325034738,"(0.003, 0.0, 0.0, 0.0, 0.003, 0.0, 0.0, 0.0, 0.003)"
2021/11/08/17:20:23.351373,60048,1636388423,351024132,imu_iphone,-0.0266107560367,-0.0227066019367,-0.353684537658,0.934710396708,"(0.00872665, 0.0, 0.0, 0.0, 0.00872665, 0.0, 0.0, 0.0, 0.00872665)",0.335703760386,0.00543416757137,0.679060101509,"(0.000872665, 0.0, 0.0, 0.0, 0.000872665, 0.0, 0.0, 0.0, 0.000872665)",-0.103650375903,-0.380734320916,-0.239411321282,"(0.003, 0.0, 0.0, 0.0, 0.003, 0.0, 0.0, 0.0, 0.003)"
2021/11/08/17:20:23.373485,60049,1636388423,373156744,imu_iphone,-0.0242394423141,-0.0189859904853,-0.343957089987,0.938480421665,"(0.00872665, 0.0, 0.0, 0.0, 0.00872665, 0.0, 0.0, 0.0, 0.00872665)",0.314025163651,0.000531238503754,0.682029187679,"(0.000872665, 0.0, 0.0, 0.0, 0.000872665, 0.0, 0.0, 0.0, 0.000872665)",-0.113957116753,-0.269623153657,-0.209453111887,"(0.003, 0.0, 0.0, 0.0, 0.003, 0.0, 0.0, 0.0, 0.003)"
2021/11/08/17:20:23.402849,60050,1636388423,402528730,imu_iphone,-0.0222518299601,-0.0154046666796,-0.334246088265,0.942097184365,"(0.00872665, 0.0, 0.0, 0.0, 0.00872665, 0.0, 0.0, 0.0, 0.00872665)",0.295875966549,-0.00926423072815,0.6792948246,"(0.000872665, 0.0, 0.0, 0.0, 0.000872665, 0.0, 0.0, 0.0, 0.000872665)",-0.117381904051,-0.163170280382,-0.210762303472,"(0.003, 0.0, 0.0, 0.0, 0.003, 0.0, 0.0, 0.0, 0.003)"
2021/11/08/17:20:23.451239,60051,1636388423,450902301,imu_iphone,-0.0206178671483,-0.0119793113047,-0.3246453714,0.945535183102,"(0.00872665, 0.0, 0.0, 0.0, 0.00872665, 0.0, 0.0, 0.0, 0.00872665)",0.27401843667,-0.0145006114617,0.663741111755,"(0.000872665, 0.0, 0.0, 0.0, 0.000872665, 0.0, 0.0, 0.0, 0.000872665)",-0.117282282114,-0.0709465698525,-0.177011005282,"(0.003, 0.0, 0.0, 0.0, 0.003, 0.0, 0.0, 0.0, 0.003)"
2021/11/08/17:20:23.462825,60052,1636388423,462431868,imu_iphone,-0.0193011796387,-0.0088051517446,-0.315317456713,0.948749089728,"(0.00872665, 0.0, 0.0, 0.0, 0.00872665, 0.0, 0.0, 0.0, 0.00872665)",0.248438745737,-0.0195250287652,0.637295305729,"(0.000872665, 0.0, 0.0, 0.0, 0.000872665, 0.0, 0.0, 0.0, 0.000872665)",-0.115967809763,-0.00668515820056,-0.174984945059,"(0.003, 0.0, 0.0, 0.0, 0.003, 0.0, 0.0, 0.0, 0.003)"
2021/11/08/17:20:23.492972,60053,1636388423,492699576,imu_iphone,-0.0182951779912,-0.00585086063015,-0.306473125438,0.951685492837,"(0.00872665, 0.0, 0.0, 0.0, 0.00872665, 0.0, 0.0, 0.0, 0.00872665)",0.229022353888,-0.0245072953403,0.592007398605,"(0.000872665, 0.0, 0.0, 0.0, 0.000872665, 0.0, 0.0, 0.0, 0.000872665)",-0.113898772504,0.0645536810718,-0.156777300239,"(0.003, 0.0, 0.0, 0.0, 0.003, 0.0, 0.0, 0.0, 0.003)"
2021/11/08/17:20:23.555463,60054,1636388423,555069033,imu_iphone,-0.0175419927605,-0.00309281948376,-0.298319130515,0.954299957731,"(0.00872665, 0.0, 0.0, 0.0, 0.00872665, 0.0, 0.0, 0.0, 0.00872665)",0.205601513386,-0.024494946003,0.536876857281,"(0.000872665, 0.0, 0.0, 0.0, 0.000872665, 0.0, 0.0, 0.0, 0.000872665)",-0.107139482573,0.129365936983,-0.135106934309,"(0.003, 0.0, 0.0, 0.0, 0.003, 0.0, 0.0, 0.0, 0.003)"
2021/11/08/17:20:23.560281,60055,1636388423,559870320,imu_iphone,-0.016997244372,-0.000604550297804,-0.291007716551,0.956569515043,"(0.00872665, 0.0, 0.0, 0.0, 0.00872665, 0.0, 0.0, 0.0, 0.00872665)",0.183878391981,-0.0244392622262,0.469593435526,"(0.000872665, 0.0, 0.0, 0.0, 0.000872665, 0.0, 0.0, 0.0, 0.000872665)",-0.103578126244,0.1709265754,-0.127671614885,"(0.003, 0.0, 0.0, 0.0, 0.003, 0.0, 0.0, 0.0, 0.003)"
2021/11/08/17:20:23.581466,60056,1636388423,581060488,imu_iphone,-0.0166147923386,0.00166337973268,-0.284705936225,0.958469463114,"(0.00872665, 0.0, 0.0, 0.0, 0.00872665, 0.0, 0.0, 0.0, 0.00872665)",0.162628233433,-0.0258323606104,0.394035041332,"(0.000872665, 0.0, 0.0, 0.0, 0.000872665, 0.0, 0.0, 0.0, 0.000872665)",-0.101734243333,0.225275202356,-0.123724159598,"(0.003, 0.0, 0.0, 0.0, 0.003, 0.0, 0.0, 0.0, 0.003)"
2021/11/08/17:20:23.611609,60057,1636388423,611377594,imu_iphone,-0.0163560808628,0.00366528373687,-0.279549103574,0.959985074366,"(0.00872665, 0.0, 0.0, 0.0, 0.00872665, 0.0, 0.0, 0.0, 0.00872665)",0.138080000877,-0.0240150205791,0.312826752663,"(0.000872665, 0.0, 0.0, 0.0, 0.000872665, 0.0, 0.0, 0.0, 0.000872665)",-0.094852289781,0.269124130346,-0.10655205667,"(0.003, 0.0, 0.0, 0.0, 0.003, 0.0, 0.0, 0.0, 0.003)"
2021/11/08/17:20:23.661976,60058,1636388423,661634829,imu_iphone,-0.016205717442,0.00542069633287,-0.275587477193,0.961124098745,"(0.00872665, 0.0, 0.0, 0.0, 0.00872665, 0.0, 0.0, 0.0, 0.00872665)",0.118971139193,-0.0232927463949,0.227793633938,"(0.000872665, 0.0, 0.0, 0.0, 0.000872665, 0.0, 0.0, 0.0, 0.000872665)",-0.0917080957443,0.307835511938,-0.101380194426,"(0.003, 0.0, 0.0, 0.0, 0.003, 0.0, 0.0, 0.0, 0.003)"
2021/11/08/17:20:23.671174,60059,1636388423,670801020,imu_iphone,-0.0161109948942,0.00689935453174,-0.272853489298,0.961895944543,"(0.00872665, 0.0, 0.0, 0.0, 0.00872665, 0.0, 0.0, 0.0, 0.00872665)",0.0960237756371,-0.020716574043,0.145595535636,"(0.000872665, 0.0, 0.0, 0.0, 0.000872665, 0.0, 0.0, 0.0, 0.000872665)",-0.0898164849356,0.361149985716,-0.0834152090549,"(0.003, 0.0, 0.0, 0.0, 0.003, 0.0, 0.0, 0.0, 0.003)"
2021/11/08/17:20:23.700781,60060,1636388423,700466034,imu_iphone,-0.0160809710031,0.00809041562429,-0.271339639365,0.962315305737,"(0.00872665, 0.0, 0.0, 0.0, 0.00872665, 0.0, 0.0, 0.0, 0.00872665)",0.0708183571696,-0.0167284421623,0.0623635165393,"(0.000872665, 0.0, 0.0, 0.0, 0.000872665, 0.0, 0.0, 0.0, 0.000872665)",-0.0811211270839,0.400200103819,-0.0753641778231,"(0.003, 0.0, 0.0, 0.0, 0.003, 0.0, 0.0, 0.0, 0.003)"
2021/11/08/17:20:23.763787,60061,1636388423,763211942,imu_iphone,-0.0162066372621,0.00873738024656,-0.270931898778,0.962422417299,"(0.00872665, 0.0, 0.0, 0.0, 0.00872665, 0.0, 0.0, 0.0, 0.00872665)",0.0409265123308,-0.017778987065,-0.00989380758256,"(0.000872665, 0.0, 0.0, 0.0, 0.000872665, 0.0, 0.0, 0.0, 0.000872665)",-0.0718972540274,0.425216502361,-0.0707179802656,"(0.003, 0.0, 0.0, 0.0, 0.003, 0.0, 0.0, 0.0, 0.003)"
2021/11/08/17:20:23.766557,60062,1636388423,766288184,imu_iphone,-0.0165960508464,0.00861469044323,-0.271480057814,0.962262405175,"(0.00872665, 0.0, 0.0, 0.0, 0.00872665, 0.0, 0.0, 0.0, 0.00872665)",0.00658601243049,-0.0130548542365,-0.0650476366282,"(0.000872665, 0.0, 0.0, 0.0, 0.000872665, 0.0, 0.0, 0.0, 0.000872665)",-0.0579706481472,0.488732613288,-0.0511678147316,"(0.003, 0.0, 0.0, 0.0, 0.003, 0.0, 0.0, 0.0, 0.003)"
2021/11/08/17:20:23.790096,60063,1636388423,789760178,imu_iphone,-0.0170552325823,0.00797695647587,-0.272681290719,0.961920163475,"(0.00872665, 0.0, 0.0, 0.0, 0.00872665, 0.0, 0.0, 0.0, 0.00872665)",-0.0334141105413,-0.00988619960845,-0.099488966167,"(0.000872665, 0.0, 0.0, 0.0, 0.000872665, 0.0, 0.0, 0.0, 0.000872665)",-0.0337640889734,0.507471075654,-0.057699739337,"(0.003, 0.0, 0.0, 0.0, 0.003, 0.0, 0.0, 0.0, 0.003)"
2021/11/08/17:20:23.820856,60064,1636388423,820582301,imu_iphone,-0.017629726812,0.0067686153715,-0.274231246823,0.961478341849,"(0.00872665, 0.0, 0.0, 0.0, 0.00872665, 0.0, 0.0, 0.0, 0.00872665)",-0.0754477903247,-0.00533919269219,-0.109537146986,"(0.000872665, 0.0, 0.0, 0.0, 0.000872665, 0.0, 0.0, 0.0, 0.000872665)",0.00135282643139,0.486536362544,-0.0474127328396,"(0.003, 0.0, 0.0, 0.0, 0.003, 0.0, 0.0, 0.0, 0.003)"
2021/11/08/17:20:23.871831,60065,1636388423,871582336,imu_iphone,-0.0183043522246,0.00493659381074,-0.275931012363,0.960990456325,"(0.00872665, 0.0, 0.0, 0.0, 0.00872665, 0.0, 0.0, 0.0, 0.00872665)",-0.1131959185,-0.00179895572364,-0.114251092076,"(0.000872665, 0.0, 0.0, 0.0, 0.000872665, 0.0, 0.0, 0.0, 0.000872665)",0.0107977973297,0.446342053972,-0.0552515101433,"(0.003, 0.0, 0.0, 0.0, 0.003, 0.0, 0.0, 0.0, 0.003)"
2021/11/08/17:20:23.879565,60066,1636388423,879201388,imu_iphone,-0.0190379246068,0.00253007319677,-0.277652201075,0.960489672716,"(0.00872665, 0.0, 0.0, 0.0, 0.00872665, 0.0, 0.0, 0.0, 0.00872665)",-0.150070846081,0.00380443222821,-0.112786270678,"(0.000872665, 0.0, 0.0, 0.0, 0.000872665, 0.0, 0.0, 0.0, 0.000872665)",0.0248213573545,0.374324603118,-0.0656151151657,"(0.003, 0.0, 0.0, 0.0, 0.003, 0.0, 0.0, 0.0, 0.003)"
2021/11/08/17:20:23.909614,60067,1636388423,909244661,imu_iphone,-0.0197799588125,-0.000389320779364,-0.279349536884,0.959985644633,"(0.00872665, 0.0, 0.0, 0.0, 0.00872665, 0.0, 0.0, 0.0, 0.00872665)",-0.188529998064,0.00974996387959,-0.109871946275,"(0.000872665, 0.0, 0.0, 0.0, 0.000872665, 0.0, 0.0, 0.0, 0.000872665)",0.0208965234831,0.267909170296,-0.0871638590097,"(0.003, 0.0, 0.0, 0.0, 0.003, 0.0, 0.0, 0.0, 0.003)"
2021/11/08/17:20:23.972609,60068,1636388423,972175829,imu_iphone,-0.0205726092154,-0.00367109028828,-0.281135335374,0.959440573486,"(0.00872665, 0.0, 0.0, 0.0, 0.00872665, 0.0, 0.0, 0.0, 0.00872665)",-0.216855958104,0.0132728908211,-0.117089301348,"(0.000872665, 0.0, 0.0, 0.0, 0.000872665, 0.0, 0.0, 0.0, 0.000872665)",0.00446763820946,0.152422531564,-0.109009056687,"(0.003, 0.0, 0.0, 0.0, 0.003, 0.0, 0.0, 0.0, 0.003)"
2021/11/08/17:20:23.975367,60069,1636388423,975016392,imu_iphone,-0.0213775384718,-0.0072054286842,-0.283054899108,0.958838363196,"(0.00872665, 0.0, 0.0, 0.0, 0.00872665, 0.0, 0.0, 0.0, 0.00872665)",-0.240230455995,0.019403681159,-0.129601970315,"(0.000872665, 0.0, 0.0, 0.0, 0.000872665, 0.0, 0.0, 0.0, 0.000872665)",-0.0212058411911,0.0190597303212,-0.124047510624,"(0.003, 0.0, 0.0, 0.0, 0.003, 0.0, 0.0, 0.0, 0.003)"
2021/11/08/17:20:23.998656,60070,1636388423,998208984,imu_iphone,-0.0222275725556,-0.0108516939822,-0.285167923544,0.958158353895,"(0.00872665, 0.0, 0.0, 0.0, 0.00872665, 0.0, 0.0, 0.0, 0.00872665)",-0.25897371769,0.0193594954908,-0.145001158118,"(0.000872665, 0.0, 0.0, 0.0, 0.000872665, 0.0, 0.0, 0.0, 0.000872665)",-0.0516578844935,-0.0929039609805,-0.154657099843,"(0.003, 0.0, 0.0, 0.0, 0.003, 0.0, 0.0, 0.0, 0.003)"
2021/11/08/17:20:24.028349,60071,1636388424,28050007,imu_iphone,-0.0231796508819,-0.0145237018341,-0.287595321118,0.957361320057,"(0.00872665, 0.0, 0.0, 0.0, 0.00872665, 0.0, 0.0, 0.0, 0.00872665)",-0.27471780777,0.019827850163,-0.168602436781,"(0.000872665, 0.0, 0.0, 0.0, 0.000872665, 0.0, 0.0, 0.0, 0.000872665)",-0.0719741449133,-0.221277534105,-0.175445705652,"(0.003, 0.0, 0.0, 0.0, 0.003, 0.0, 0.0, 0.0, 0.003)"
2021/11/08/17:20:24.084198,60072,1636388424,83900722,imu_iphone,-0.0242592202495,-0.0183365927168,-0.290350531977,0.956437048729,"(0.00872665, 0.0, 0.0, 0.0, 0.00872665, 0.0, 0.0, 0.0, 0.00872665)",-0.288869380951,0.0165324304253,-0.19304522872,"(0.000872665, 0.0, 0.0, 0.0, 0.000872665, 0.0, 0.0, 0.0, 0.000872665)",-0.087215862684,-0.320624176562,-0.195674148202,"(0.003, 0.0, 0.0, 0.0, 0.003, 0.0, 0.0, 0.0, 0.003)"
2021/11/08/17:20:24.090527,60073,1636388424,90056807,imu_iphone,-0.0254990996486,-0.0223258485246,-0.293447994725,0.955374076892,"(0.00872665, 0.0, 0.0, 0.0, 0.00872665, 0.0, 0.0, 0.0, 0.00872665)",-0.294048845768,0.0144217284396,-0.214962095022,"(0.000872665, 0.0, 0.0, 0.0, 0.000872665, 0.0, 0.0, 0.0, 0.000872665)",-0.0837732048333,-0.440903485604,-0.204258445501,"(0.003, 0.0, 0.0, 0.0, 0.003, 0.0, 0.0, 0.0, 0.003)"
2021/11/08/17:20:24.118580,60074,1636388424,117771636,imu_iphone,-0.0268964263315,-0.0263492971958,-0.297010230765,0.954131657377,"(0.00872665, 0.0, 0.0, 0.0, 0.00872665, 0.0, 0.0, 0.0, 0.00872665)",-0.303356677294,0.0116706611589,-0.255235522985,"(0.000872665, 0.0, 0.0, 0.0, 0.000872665, 0.0, 0.0, 0.0, 0.000872665)",-0.0745612089336,-0.576048463359,-0.223458362818,"(0.003, 0.0, 0.0, 0.0, 0.003, 0.0, 0.0, 0.0, 0.003)"
2021/11/08/17:20:24.148974,60075,1636388424,148786060,imu_iphone,-0.0284600082745,-0.0303698804701,-0.301038023376,0.952703420153,"(0.00872665, 0.0, 0.0, 0.0, 0.00872665, 0.0, 0.0, 0.0, 0.00872665)",-0.304524868727,0.00977284274995,-0.280667692423,"(0.000872665, 0.0, 0.0, 0.0, 0.000872665, 0.0, 0.0, 0.0, 0.000872665)",-0.081497724317,-0.660626025796,-0.226936286688,"(0.003, 0.0, 0.0, 0.0, 0.003, 0.0, 0.0, 0.0, 0.003)"
2021/11/08/17:20:24.183981,60076,1636388424,182842087,imu_iphone,-0.030151464687,-0.0343867127533,-0.305442876995,0.951111503482,"(0.00872665, 0.0, 0.0, 0.0, 0.00872665, 0.0, 0.0, 0.0, 0.00872665)",-0.309991955757,0.00850503332913,-0.30844193697,"(0.000872665, 0.0, 0.0, 0.0, 0.000872665, 0.0, 0.0, 0.0, 0.000872665)",-0.0631492712349,-0.78345570758,-0.249852109551,"(0.003, 0.0, 0.0, 0.0, 0.003, 0.0, 0.0, 0.0, 0.003)"
2021/11/08/17:20:24.206949,60077,1636388424,206636364,imu_iphone,-0.0319840142955,-0.0383256531242,-0.31027953595,0.949333859458,"(0.00872665, 0.0, 0.0, 0.0, 0.00872665, 0.0, 0.0, 0.0, 0.00872665)",-0.305018365383,0.00871123559773,-0.344837963581,"(0.000872665, 0.0, 0.0, 0.0, 0.000872665, 0.0, 0.0, 0.0, 0.000872665)",-0.042640600875,-0.928617367744,-0.250969512463,"(0.003, 0.0, 0.0, 0.0, 0.003, 0.0, 0.0, 0.0, 0.003)"
2021/11/08/17:20:24.237824,60078,1636388424,236797858,imu_iphone,-0.0339353975103,-0.042119191706,-0.315578431953,0.947356646555,"(0.00872665, 0.0, 0.0, 0.0, 0.00872665, 0.0, 0.0, 0.0, 0.00872665)",-0.300897240639,0.0105092572048,-0.37543836236,"(0.000872665, 0.0, 0.0, 0.0, 0.000872665, 0.0, 0.0, 0.0, 0.000872665)",-0.0199649523944,-1.02741923243,-0.257684454918,"(0.003, 0.0, 0.0, 0.0, 0.003, 0.0, 0.0, 0.0, 0.003)"
2021/11/08/17:20:24.294529,60079,1636388424,294222844,imu_iphone,-0.0359785025416,-0.0457100007324,-0.32136288415,0.945167731082,"(0.00872665, 0.0, 0.0, 0.0, 0.00872665, 0.0, 0.0, 0.0, 0.00872665)",-0.291071623564,0.0114180706441,-0.413770675659,"(0.000872665, 0.0, 0.0, 0.0, 0.000872665, 0.0, 0.0, 0.0, 0.000872665)",-0.0220322720334,-1.15713225648,-0.263082019687,"(0.003, 0.0, 0.0, 0.0, 0.003, 0.0, 0.0, 0.0, 0.003)"
2021/11/08/17:20:24.297884,60080,1636388424,297553748,imu_iphone,-0.0381150452164,-0.0490468278067,-0.327671929928,0.94274745205,"(0.00872665, 0.0, 0.0, 0.0, 0.00872665, 0.0, 0.0, 0.0, 0.00872665)",-0.277801096439,0.0148273538798,-0.449472606182,"(0.000872665, 0.0, 0.0, 0.0, 0.000872665, 0.0, 0.0, 0.0, 0.000872665)",-0.0134276922047,-1.26196479321,-0.272241683006,"(0.003, 0.0, 0.0, 0.0, 0.003, 0.0, 0.0, 0.0, 0.003)"
2021/11/08/17:20:24.326178,60081,1636388424,325859112,imu_iphone,-0.0403637240934,-0.0521233743014,-0.334440233803,0.940108320165,"(0.00872665, 0.0, 0.0, 0.0, 0.00872665, 0.0, 0.0, 0.0, 0.00872665)",-0.264603853226,0.0133832897991,-0.482590705156,"(0.000872665, 0.0, 0.0, 0.0, 0.000872665, 0.0, 0.0, 0.0, 0.000872665)",0.0014705016464,-1.3566455403,-0.260405749083,"(0.003, 0.0, 0.0, 0.0, 0.003, 0.0, 0.0, 0.0, 0.003)"
2021/11/08/17:20:24.358017,60082,1636388424,357708370,imu_iphone,-0.0426893956923,-0.0548620430475,-0.341622102135,0.937263095966,"(0.00872665, 0.0, 0.0, 0.0, 0.00872665, 0.0, 0.0, 0.0, 0.00872665)",-0.249480515718,0.0133081171662,-0.51115500927,"(0.000872665, 0.0, 0.0, 0.0, 0.000872665, 0.0, 0.0, 0.0, 0.000872665)",0.00385919887573,-1.44228824615,-0.275931276083,"(0.003, 0.0, 0.0, 0.0, 0.003, 0.0, 0.0, 0.0, 0.003)"
2021/11/08/17:20:24.392688,60083,1636388424,392335847,imu_iphone,-0.0451203613687,-0.0572626925814,-0.3491448796,0.934228553448,"(0.00872665, 0.0, 0.0, 0.0, 0.00872665, 0.0, 0.0, 0.0, 0.00872665)",-0.231084182858,0.0101806689054,-0.530490458012,"(0.000872665, 0.0, 0.0, 0.0, 0.000872665, 0.0, 0.0, 0.0, 0.000872665)",0.0202858548984,-1.5206476602,-0.277018273473,"(0.003, 0.0, 0.0, 0.0, 0.003, 0.0, 0.0, 0.0, 0.003)"
2021/11/08/17:20:24.416310,60084,1636388424,416020897,imu_iphone,-0.0476007129505,-0.0593263233237,-0.356828762694,0.931068092892,"(0.00872665, 0.0, 0.0, 0.0, 0.00872665, 0.0, 0.0, 0.0, 0.00872665)",-0.220287531614,0.00945786293596,-0.537849366665,"(0.000872665, 0.0, 0.0, 0.0, 0.000872665, 0.0, 0.0, 0.0, 0.000872665)",0.0407655449957,-1.58315278754,-0.267689625621,"(0.003, 0.0, 0.0, 0.0, 0.003, 0.0, 0.0, 0.0, 0.003)"
2021/11/08/17:20:24.445868,60085,1636388424,445234989,imu_iphone,-0.0501119166134,-0.0610550783082,-0.364566952199,0.927821109153,"(0.00872665, 0.0, 0.0, 0.0, 0.00872665, 0.0, 0.0, 0.0, 0.00872665)",-0.202168405056,0.00298623740673,-0.535012960434,"(0.000872665, 0.0, 0.0, 0.0, 0.000872665, 0.0, 0.0, 0.0, 0.000872665)",0.0682113885507,-1.64336726815,-0.271048266292,"(0.003, 0.0, 0.0, 0.0, 0.003, 0.0, 0.0, 0.0, 0.003)"
2021/11/08/17:20:24.494978,60086,1636388424,494736373,imu_iphone,-0.0526129666259,-0.0624763867367,-0.372181769355,0.924558979948,"(0.00872665, 0.0, 0.0, 0.0, 0.00872665, 0.0, 0.0, 0.0, 0.00872665)",-0.183972418308,0.002721154131,-0.526360213757,"(0.000872665, 0.0, 0.0, 0.0, 0.000872665, 0.0, 0.0, 0.0, 0.000872665)",0.0845853465423,-1.70431411251,-0.280581566691,"(0.003, 0.0, 0.0, 0.0, 0.003, 0.0, 0.0, 0.0, 0.003)"
2021/11/08/17:20:24.513045,60087,1636388424,512806498,imu_iphone,-0.0550286555348,-0.0635924855699,-0.379554689171,0.921339286461,"(0.00872665, 0.0, 0.0, 0.0, 0.00872665, 0.0, 0.0, 0.0, 0.00872665)",-0.163813605905,-0.000641811639071,-0.503336310387,"(0.000872665, 0.0, 0.0, 0.0, 0.000872665, 0.0, 0.0, 0.0, 0.000872665)",0.122848465964,-1.76230928242,-0.270781048536,"(0.003, 0.0, 0.0, 0.0, 0.003, 0.0, 0.0, 0.0, 0.003)"
2021/11/08/17:20:24.534806,60088,1636388424,534423853,imu_iphone,-0.0573495256115,-0.0644241662576,-0.386534361624,0.918232947567,"(0.00872665, 0.0, 0.0, 0.0, 0.00872665, 0.0, 0.0, 0.0, 0.00872665)",-0.144355788827,-0.00115020945668,-0.47493955493,"(0.000872665, 0.0, 0.0, 0.0, 0.000872665, 0.0, 0.0, 0.0, 0.000872665)",0.148985519931,-1.80753486425,-0.263018285036,"(0.003, 0.0, 0.0, 0.0, 0.003, 0.0, 0.0, 0.0, 0.003)"
2021/11/08/17:20:24.564446,60089,1636388424,564128856,imu_iphone,-0.0594886042641,-0.0650276072576,-0.393010492485,0.91530064408,"(0.00872665, 0.0, 0.0, 0.0, 0.00872665, 0.0, 0.0, 0.0, 0.00872665)",-0.12347702682,-0.000815158709884,-0.434905529022,"(0.000872665, 0.0, 0.0, 0.0, 0.000872665, 0.0, 0.0, 0.0, 0.000872665)",0.183236279972,-1.85521145269,-0.268855560422,"(0.003, 0.0, 0.0, 0.0, 0.003, 0.0, 0.0, 0.0, 0.003)"
2021/11/08/17:20:24.601072,60090,1636388424,600745263,imu_iphone,-0.061383557294,-0.06540956965,-0.398863904014,0.912612312632,"(0.00872665, 0.0, 0.0, 0.0, 0.00872665, 0.0, 0.0, 0.0, 0.00872665)",-0.0999522358179,-0.00122262258083,-0.392469644547,"(0.000872665, 0.0, 0.0, 0.0, 0.000872665, 0.0, 0.0, 0.0, 0.000872665)",0.207463377491,-1.90213667393,-0.273129290342,"(0.003, 0.0, 0.0, 0.0, 0.003, 0.0, 0.0, 0.0, 0.003)"
2021/11/08/17:20:24.623934,60091,1636388424,623662122,imu_iphone,-0.0629933733972,-0.0655742321665,-0.404040649106,0.910210420098,"(0.00872665, 0.0, 0.0, 0.0, 0.00872665, 0.0, 0.0, 0.0, 0.00872665)",-0.0766612440348,0.00438851304352,-0.341253787279,"(0.000872665, 0.0, 0.0, 0.0, 0.000872665, 0.0, 0.0, 0.0, 0.000872665)",0.247374607734,-1.94239636168,-0.261614368558,"(0.003, 0.0, 0.0, 0.0, 0.003, 0.0, 0.0, 0.0, 0.003)"
2021/11/08/17:20:24.654417,60092,1636388424,654113338,imu_iphone,-0.0642453126593,-0.0654989471207,-0.408456439482,0.908155143559,"(0.00872665, 0.0, 0.0, 0.0, 0.00872665, 0.0, 0.0, 0.0, 0.00872665)",-0.0469575896859,0.00586356408894,-0.28737488389,"(0.000872665, 0.0, 0.0, 0.0, 0.000872665, 0.0, 0.0, 0.0, 0.000872665)",0.275984705016,-1.99940671429,-0.25930647254,"(0.003, 0.0, 0.0, 0.0, 0.003, 0.0, 0.0, 0.0, 0.003)"
2021/11/08/17:20:24.705037,60093,1636388424,704637395,imu_iphone,-0.0650845887992,-0.0652158293238,-0.412041123957,0.906494900192,"(0.00872665, 0.0, 0.0, 0.0, 0.00872665, 0.0, 0.0, 0.0, 0.00872665)",-0.0130506008863,0.00982029456645,-0.227470755577,"(0.000872665, 0.0, 0.0, 0.0, 0.000872665, 0.0, 0.0, 0.0, 0.000872665)",0.299074847996,-2.04096316829,-0.246040894389,"(0.003, 0.0, 0.0, 0.0, 0.003, 0.0, 0.0, 0.0, 0.003)"
2021/11/08/17:20:24.713832,60094,1636388424,713472397,imu_iphone,-0.065448941398,-0.0646680283615,-0.41477042513,0.905262379985,"(0.00872665, 0.0, 0.0, 0.0, 0.00872665, 0.0, 0.0, 0.0, 0.00872665)",0.0201521739364,0.0188814587891,-0.168068662286,"(0.000872665, 0.0, 0.0, 0.0, 0.000872665, 0.0, 0.0, 0.0, 0.000872665)",0.31092561923,-2.07278049991,-0.257552892566,"(0.003, 0.0, 0.0, 0.0, 0.003, 0.0, 0.0, 0.0, 0.003)"
2021/11/08/17:20:24.743881,60095,1636388424,743503405,imu_iphone,-0.0652889179394,-0.0638672876566,-0.416580312793,0.90449940285,"(0.00872665, 0.0, 0.0, 0.0, 0.00872665, 0.0, 0.0, 0.0, 0.00872665)",0.0594877041876,0.0265525504947,-0.10204077512,"(0.000872665, 0.0, 0.0, 0.0, 0.000872665, 0.0, 0.0, 0.0, 0.000872665)",0.321533126235,-2.06715065449,-0.257069327831,"(0.003, 0.0, 0.0, 0.0, 0.003, 0.0, 0.0, 0.0, 0.003)"
2021/11/08/17:20:24.773605,60096,1636388424,773191534,imu_iphone,-0.0629410122194,-0.0602107163549,-0.417324945363,0.904573373804,"(0.00872665, 0.0, 0.0, 0.0, 0.00872665, 0.0, 0.0, 0.0, 0.00872665)",0.096090644598,0.0312907211483,-0.0316428914666,"(0.000872665, 0.0, 0.0, 0.0, 0.000872665, 0.0, 0.0, 0.0, 0.000872665)",0.295791928768,-1.97374840111,-0.247499774694,"(0.003, 0.0, 0.0, 0.0, 0.003, 0.0, 0.0, 0.0, 0.003)"
2021/11/08/17:20:24.810063,60097,1636388424,809831686,imu_iphone,-0.0601403535559,-0.056390889681,-0.41703254124,0.905144775703,"(0.00872665, 0.0, 0.0, 0.0, 0.00872665, 0.0, 0.0, 0.0, 0.00872665)",0.130429714918,0.0372045375407,0.0466348677874,"(0.000872665, 0.0, 0.0, 0.0, 0.000872665, 0.0, 0.0, 0.0, 0.000872665)",0.262643405423,-1.84304456636,-0.239482072592,"(0.003, 0.0, 0.0, 0.0, 0.003, 0.0, 0.0, 0.0, 0.003)"
2021/11/08/17:20:24.832880,60098,1636388424,832590980,imu_iphone,-0.0569702628213,-0.0524869212917,-0.415622517356,0.90623255035,"(0.00872665, 0.0, 0.0, 0.0, 0.00872665, 0.0, 0.0, 0.0, 0.00872665)",0.158498898149,0.0386000350118,0.129312172532,"(0.000872665, 0.0, 0.0, 0.0, 0.000872665, 0.0, 0.0, 0.0, 0.000872665)",0.234520235024,-1.70525756076,-0.235384343863,"(0.003, 0.0, 0.0, 0.0, 0.003, 0.0, 0.0, 0.0, 0.003)"
2021/11/08/17:20:24.862036,60099,1636388424,861668163,imu_iphone,-0.0535617702472,-0.0485273736755,-0.413077393222,0.907823384795,"(0.00872665, 0.0, 0.0, 0.0, 0.00872665, 0.0, 0.0, 0.0, 0.00872665)",0.186347335577,0.0402066484094,0.209430083632,"(0.000872665, 0.0, 0.0, 0.0, 0.000872665, 0.0, 0.0, 0.0, 0.000872665)",0.210299496353,-1.56997594088,-0.228378210068,"(0.003, 0.0, 0.0, 0.0, 0.003, 0.0, 0.0, 0.0, 0.003)"
2021/11/08/17:20:24.915891,60100,1636388424,915631188,imu_iphone,-0.0500089177029,-0.0445396759583,-0.409487384615,0.909854607757,"(0.00872665, 0.0, 0.0, 0.0, 0.00872665, 0.0, 0.0, 0.0, 0.00872665)",0.210830062628,0.0382362753153,0.2782561481,"(0.000872665, 0.0, 0.0, 0.0, 0.000872665, 0.0, 0.0, 0.0, 0.000872665)",0.171443725079,-1.41930927336,-0.241419839859,"(0.003, 0.0, 0.0, 0.0, 0.003, 0.0, 0.0, 0.0, 0.003)"
2021/11/08/17:20:24.922807,60101,1636388424,922436309,imu_iphone,-0.0463946034928,-0.0405259632925,-0.405021427842,0.912229592841,"(0.00872665, 0.0, 0.0, 0.0, 0.00872665, 0.0, 0.0, 0.0, 0.00872665)",0.22957855463,0.0402109585702,0.340919435024,"(0.000872665, 0.0, 0.0, 0.0, 0.000872665, 0.0, 0.0, 0.0, 0.000872665)",0.145631374307,-1.27602837011,-0.230130035877,"(0.003, 0.0, 0.0, 0.0, 0.003, 0.0, 0.0, 0.0, 0.003)"
2021/11/08/17:20:24.952474,60102,1636388424,952051126,imu_iphone,-0.0434312912329,-0.0376309332251,-0.399843467219,0.91478021269,"(0.00872665, 0.0, 0.0, 0.0, 0.00872665, 0.0, 0.0, 0.0, 0.00872665)",0.249935358763,0.0401619076729,0.385362505913,"(0.000872665, 0.0, 0.0, 0.0, 0.000872665, 0.0, 0.0, 0.0, 0.000872665)",0.112315291688,-1.16131265022,-0.223911522031,"(0.003, 0.0, 0.0, 0.0, 0.003, 0.0, 0.0, 0.0, 0.003)"
2021/11/08/17:20:24.981687,60103,1636388424,981346007,imu_iphone,-0.040734564938,-0.0351507234785,-0.394132680609,0.917477275977,"(0.00872665, 0.0, 0.0, 0.0, 0.00872665, 0.0, 0.0, 0.0, 0.00872665)",0.262089878321,0.0394913703203,0.416113525629,"(0.000872665, 0.0, 0.0, 0.0, 0.000872665, 0.0, 0.0, 0.0, 0.000872665)",0.0750954617187,-1.04833099522,-0.23133397758,"(0.003, 0.0, 0.0, 0.0, 0.003, 0.0, 0.0, 0.0, 0.003)"
2021/11/08/17:20:25.018714,60104,1636388425,18328892,imu_iphone,-0.0380288144615,-0.0324591128452,-0.388030526255,0.920289370773,"(0.00872665, 0.0, 0.0, 0.0, 0.00872665, 0.0, 0.0, 0.0, 0.00872665)",0.276135057211,0.034611467272,0.434003651142,"(0.000872665, 0.0, 0.0, 0.0, 0.000872665, 0.0, 0.0, 0.0, 0.000872665)",0.0355244297907,-0.949250218347,-0.231964892149,"(0.003, 0.0, 0.0, 0.0, 0.003, 0.0, 0.0, 0.0, 0.003)"
2021/11/08/17:20:25.041379,60105,1636388425,41018666,imu_iphone,-0.0353558480346,-0.0295695977153,-0.381738089291,0.923120595635,"(0.00872665, 0.0, 0.0, 0.0, 0.00872665, 0.0, 0.0, 0.0, 0.00872665)",0.281751215458,0.0327002182603,0.443525373936,"(0.000872665, 0.0, 0.0, 0.0, 0.000872665, 0.0, 0.0, 0.0, 0.000872665)",0.00110271178186,-0.821314309314,-0.224450635314,"(0.003, 0.0, 0.0, 0.0, 0.003, 0.0, 0.0, 0.0, 0.003)"
2021/11/08/17:20:25.070385,60106,1636388425,70076522,imu_iphone,-0.0327862428988,-0.0265212680855,-0.375363088325,0.92591805066,"(0.00872665, 0.0, 0.0, 0.0, 0.00872665, 0.0, 0.0, 0.0, 0.00872665)",0.28776216507,0.0257950723171,0.446457147598,"(0.000872665, 0.0, 0.0, 0.0, 0.000872665, 0.0, 0.0, 0.0, 0.000872665)",-0.0245246111602,-0.721310987994,-0.225893143415,"(0.003, 0.0, 0.0, 0.0, 0.003, 0.0, 0.0, 0.0, 0.003)"
2021/11/08/17:20:25.123330,60107,1636388425,122947465,imu_iphone,-0.0304181422357,-0.0232866608305,-0.369606952063,0.928398173758,"(0.00872665, 0.0, 0.0, 0.0, 0.00872665, 0.0, 0.0, 0.0, 0.00872665)",0.290979713202,0.0198886655271,0.433928251266,"(0.000872665, 0.0, 0.0, 0.0, 0.000872665, 0.0, 0.0, 0.0, 0.000872665)",-0.00308893784881,-0.714208594412,-0.265301038027,"(0.003, 0.0, 0.0, 0.0, 0.003, 0.0, 0.0, 0.0, 0.003)"
2021/11/08/17:20:25.129749,60108,1636388425,129344145,imu_iphone,-0.0281493638634,-0.0199867108241,-0.363171305441,0.931082567557,"(0.00872665, 0.0, 0.0, 0.0, 0.00872665, 0.0, 0.0, 0.0, 0.00872665)",0.286082416773,0.0163516495377,0.413517445326,"(0.000872665, 0.0, 0.0, 0.0, 0.000872665, 0.0, 0.0, 0.0, 0.000872665)",-0.100304379836,-0.395493606851,-0.135351347923,"(0.003, 0.0, 0.0, 0.0, 0.003, 0.0, 0.0, 0.0, 0.003)"
2021/11/08/17:20:25.163000,60109,1636388425,162672497,imu_iphone,-0.0261047621955,-0.0166426390461,-0.357037948221,0.933576706804,"(0.00872665, 0.0, 0.0, 0.0, 0.00872665, 0.0, 0.0, 0.0, 0.00872665)",0.279974997044,0.0113898171112,0.446352541447,"(0.000872665, 0.0, 0.0, 0.0, 0.000872665, 0.0, 0.0, 0.0, 0.000872665)",-0.0383968379349,-0.387263979726,-0.211304340363,"(0.003, 0.0, 0.0, 0.0, 0.003, 0.0, 0.0, 0.0, 0.003)"
2021/11/08/17:20:25.190615,60110,1636388425,189981910,imu_iphone,-0.0242616165196,-0.013351683195,-0.350848816985,0.936022550017,"(0.00872665, 0.0, 0.0, 0.0, 0.00872665, 0.0, 0.0, 0.0, 0.00872665)",0.270487755537,0.00428247079253,0.421289891005,"(0.000872665, 0.0, 0.0, 0.0, 0.000872665, 0.0, 0.0, 0.0, 0.000872665)",-0.0752081668004,-0.267160269879,-0.182248356342,"(0.003, 0.0, 0.0, 0.0, 0.003, 0.0, 0.0, 0.0, 0.003)"
2021/11/08/17:20:25.232030,60111,1636388425,231772505,imu_iphone,-0.0226167615774,-0.0101497933204,-0.344811311853,0.938344618469,"(0.00872665, 0.0, 0.0, 0.0, 0.00872665, 0.0, 0.0, 0.0, 0.00872665)",0.254691749811,0.000207567587495,0.420384407043,"(0.000872665, 0.0, 0.0, 0.0, 0.000872665, 0.0, 0.0, 0.0, 0.000872665)",-0.0699155230075,-0.135691948235,-0.168631360531,"(0.003, 0.0, 0.0, 0.0, 0.003, 0.0, 0.0, 0.0, 0.003)"
2021/11/08/17:20:25.249723,60112,1636388425,249421269,imu_iphone,-0.0211917150394,-0.00710758024217,-0.338696436859,0.940630170245,"(0.00872665, 0.0, 0.0, 0.0, 0.00872665, 0.0, 0.0, 0.0, 0.00872665)",0.237908691168,-0.00301614031196,0.42503914237,"(0.000872665, 0.0, 0.0, 0.0, 0.000872665, 0.0, 0.0, 0.0, 0.000872665)",-0.0703240972012,-0.0414741544425,-0.157545039654,"(0.003, 0.0, 0.0, 0.0, 0.003, 0.0, 0.0, 0.0, 0.003)"
