time,.header.seq,.header.stamp.secs,.header.stamp.nsecs,.header.frame_id,.orientation.x,.orientation.y,.orientation.z,.orientation.w,.orientation_covariance,.angular_velocity.x,.angular_velocity.y,.angular_velocity.z,.angular_velocity_covariance,.linear_acceleration.x,.linear_acceleration.y,.linear_acceleration.z,.linear_acceleration_covariance
2022/01/11/19:03:36.041831,9515,1641924216,41248497,imu_iphone,-0.0466747426891,-0.0306793168184,-0.535864245566,0.842454603073,"(0.00872665, 0.0, 0.0, 0.0, 0.00872665, 0.0, 0.0, 0.0, 0.00872665)",0.983894050121,0.38952177763,1.95421111584,"(0.000872665, 0.0, 0.0, 0.0, 0.000872665, 0.0, 0.0, 0.0, 0.000872665)",0.154794509411,-1.1662195605,-1.30467344105,"(0.003, 0.0, 0.0, 0.0, 0.003, 0.0, 0.0, 0.0, 0.003)"
2022/01/11/19:03:36.071202,9516,1641924216,70531550,imu_iphone,-0.0317964192711,-0.0242750104657,-0.509864874674,0.859323874428,"(0.00872665, 0.0, 0.0, 0.0, 0.00872665, 0.0, 0.0, 0.0, 0.00872665)",1.02164900303,0.32394105196,2.03893971443,"(0.000872665, 0.0, 0.0, 0.0, 0.000872665, 0.0, 0.0, 0.0, 0.000872665)",-0.0814219115116,-0.759685167968,-1.38009316742,"(0.003, 0.0, 0.0, 0.0, 0.003, 0.0, 0.0, 0.0, 0.003)"
2022/01/11/19:03:36.101028,9517,1641924216,100555314,imu_iphone,-0.0184726014826,-0.0154554622575,-0.482553543264,0.875535247471,"(0.00872665, 0.0, 0.0, 0.0, 0.00872665, 0.0, 0.0, 0.0, 0.00872665)",1.03939294815,0.258573621511,2.12225580215,"(0.000872665, 0.0, 0.0, 0.0, 0.000872665, 0.0, 0.0, 0.0, 0.000872665)",-0.262354516424,-0.331413824335,-1.35768195927,"(0.003, 0.0, 0.0, 0.0, 0.003, 0.0, 0.0, 0.0, 0.003)"
2022/01/11/19:03:36.130921,9518,1641924216,130412634,imu_iphone,-0.00730717560695,-0.00452206741943,-0.453870366054,0.891026288562,"(0.00872665, 0.0, 0.0, 0.0, 0.00872665, 0.0, 0.0, 0.0, 0.00872665)",1.0430804491,0.181821450591,2.19823384285,"(0.000872665, 0.0, 0.0, 0.0, 0.000872665, 0.0, 0.0, 0.0, 0.000872665)",-0.392427546233,0.0793606126774,-1.36945357382,"(0.003, 0.0, 0.0, 0.0, 0.003, 0.0, 0.0, 0.0, 0.003)"
2022/01/11/19:03:36.160574,9519,1641924216,160093393,imu_iphone,0.00121728562429,0.00816836626195,-0.423808880519,0.90571398841,"(0.00872665, 0.0, 0.0, 0.0, 0.00872665, 0.0, 0.0, 0.0, 0.00872665)",1.02946901321,0.0991656407714,2.27152609825,"(0.000872665, 0.0, 0.0, 0.0, 0.000872665, 0.0, 0.0, 0.0, 0.000872665)",-0.428822662979,0.488780925907,-1.31560481071,"(0.003, 0.0, 0.0, 0.0, 0.003, 0.0, 0.0, 0.0, 0.003)"
2022/01/11/19:03:36.189725,9520,1641924216,189256847,imu_iphone,0.00672033025874,0.0220960534779,-0.392251483116,0.919568037491,"(0.00872665, 0.0, 0.0, 0.0, 0.00872665, 0.0, 0.0, 0.0, 0.00872665)",1.00639092922,0.0208712331951,2.33628940582,"(0.000872665, 0.0, 0.0, 0.0, 0.000872665, 0.0, 0.0, 0.0, 0.000872665)",-0.411789614148,0.866808643788,-1.28371760488,"(0.003, 0.0, 0.0, 0.0, 0.003, 0.0, 0.0, 0.0, 0.003)"
2022/01/11/19:03:36.225138,9521,1641924216,219841091,imu_iphone,0.00893341415763,0.0367009875063,-0.359208018317,0.932492804907,"(0.00872665, 0.0, 0.0, 0.0, 0.00872665, 0.0, 0.0, 0.0, 0.00872665)",0.971697986126,-0.0537443831563,2.38353514671,"(0.000872665, 0.0, 0.0, 0.0, 0.000872665, 0.0, 0.0, 0.0, 0.000872665)",-0.343074195608,1.18498583369,-1.22819712281,"(0.003, 0.0, 0.0, 0.0, 0.003, 0.0, 0.0, 0.0, 0.003)"
2022/01/11/19:03:36.249612,9522,1641924216,249040762,imu_iphone,0.0077595108511,0.0514196438082,-0.324850634629,0.944334620462,"(0.00872665, 0.0, 0.0, 0.0, 0.00872665, 0.0, 0.0, 0.0, 0.00872665)",0.930330574512,-0.126384288073,2.41058754921,"(0.000872665, 0.0, 0.0, 0.0, 0.000872665, 0.0, 0.0, 0.0, 0.000872665)",-0.223343739118,1.49477650836,-1.19188766778,"(0.003, 0.0, 0.0, 0.0, 0.003, 0.0, 0.0, 0.0, 0.003)"
2022/01/11/19:03:36.279345,9523,1641924216,279118571,imu_iphone,0.00326168608174,0.0656235240306,-0.289359575735,0.954962800547,"(0.00872665, 0.0, 0.0, 0.0, 0.00872665, 0.0, 0.0, 0.0, 0.00872665)",0.882468819618,-0.192458182573,2.41749048233,"(0.000872665, 0.0, 0.0, 0.0, 0.000872665, 0.0, 0.0, 0.0, 0.000872665)",-0.0835809410736,1.75071863919,-1.11725380719,"(0.003, 0.0, 0.0, 0.0, 0.003, 0.0, 0.0, 0.0, 0.003)"
2022/01/11/19:03:36.309399,9524,1641924216,309081674,imu_iphone,-0.00436617357699,0.0787203780574,-0.253104521512,0.964221001533,"(0.00872665, 0.0, 0.0, 0.0, 0.00872665, 0.0, 0.0, 0.0, 0.00872665)",0.82883733511,-0.252288579941,2.39233565331,"(0.000872665, 0.0, 0.0, 0.0, 0.000872665, 0.0, 0.0, 0.0, 0.000872665)",0.118305946849,1.98277986422,-1.05571537077,"(0.003, 0.0, 0.0, 0.0, 0.003, 0.0, 0.0, 0.0, 0.003)"
2022/01/11/19:03:36.338899,9525,1641924216,338585327,imu_iphone,-0.0146927179745,0.0902385003619,-0.216620734639,0.971965325727,"(0.00872665, 0.0, 0.0, 0.0, 0.00872665, 0.0, 0.0, 0.0, 0.00872665)",0.771490573883,-0.303008139133,2.33340239525,"(0.000872665, 0.0, 0.0, 0.0, 0.000872665, 0.0, 0.0, 0.0, 0.000872665)",0.334995243922,2.17871699095,-0.99088144362,"(0.003, 0.0, 0.0, 0.0, 0.003, 0.0, 0.0, 0.0, 0.003)"
2022/01/11/19:03:36.368787,9526,1641924216,368537585,imu_iphone,-0.0272076208747,0.0997688657867,-0.180460871298,0.97813076463,"(0.00872665, 0.0, 0.0, 0.0, 0.00872665, 0.0, 0.0, 0.0, 0.00872665)",0.710328876972,-0.340550094843,2.24936413765,"(0.000872665, 0.0, 0.0, 0.0, 0.000872665, 0.0, 0.0, 0.0, 0.000872665)",0.585886842236,2.33594803512,-0.919043136835,"(0.003, 0.0, 0.0, 0.0, 0.003, 0.0, 0.0, 0.0, 0.003)"
2022/01/11/19:03:36.402033,9527,1641924216,398471946,imu_iphone,-0.0412440882538,0.107137555574,-0.145265210913,0.98270976787,"(0.00872665, 0.0, 0.0, 0.0, 0.00872665, 0.0, 0.0, 0.0, 0.00872665)",0.647731363773,-0.371102124453,2.13451075554,"(0.000872665, 0.0, 0.0, 0.0, 0.000872665, 0.0, 0.0, 0.0, 0.000872665)",0.851787658408,2.49091562212,-0.84401458919,"(0.003, 0.0, 0.0, 0.0, 0.003, 0.0, 0.0, 0.0, 0.003)"
2022/01/11/19:03:36.428436,9528,1641924216,428017075,imu_iphone,-0.0561202849463,0.112250927406,-0.111619960233,0.985794718687,"(0.00872665, 0.0, 0.0, 0.0, 0.00872665, 0.0, 0.0, 0.0, 0.00872665)",0.584209859371,-0.38493937254,1.99999475479,"(0.000872665, 0.0, 0.0, 0.0, 0.000872665, 0.0, 0.0, 0.0, 0.000872665)",1.14655025795,2.62118398547,-0.762866345644,"(0.003, 0.0, 0.0, 0.0, 0.003, 0.0, 0.0, 0.0, 0.003)"
2022/01/11/19:03:36.458025,9529,1641924216,457686245,imu_iphone,-0.071170864802,0.115230723657,-0.0800552450502,0.987546326037,"(0.00872665, 0.0, 0.0, 0.0, 0.00872665, 0.0, 0.0, 0.0, 0.00872665)",0.516874432564,-0.385863691568,1.84448719025,"(0.000872665, 0.0, 0.0, 0.0, 0.000872665, 0.0, 0.0, 0.0, 0.000872665)",1.43677914575,2.71215496659,-0.688614308238,"(0.003, 0.0, 0.0, 0.0, 0.003, 0.0, 0.0, 0.0, 0.003)"
2022/01/11/19:03:36.487923,9530,1641924216,487609202,imu_iphone,-0.0857983077369,0.116266813091,-0.0510001484907,0.988190094778,"(0.00872665, 0.0, 0.0, 0.0, 0.00872665, 0.0, 0.0, 0.0, 0.00872665)",0.448126763105,-0.375135093927,1.68168652058,"(0.000872665, 0.0, 0.0, 0.0, 0.000872665, 0.0, 0.0, 0.0, 0.000872665)",1.73057366565,2.78897246987,-0.593619858027,"(0.003, 0.0, 0.0, 0.0, 0.003, 0.0, 0.0, 0.0, 0.003)"
2022/01/11/19:03:36.517560,9531,1641924216,517320186,imu_iphone,-0.0994911309427,0.115676871038,-0.0247554026499,0.987981551655,"(0.00872665, 0.0, 0.0, 0.0, 0.00872665, 0.0, 0.0, 0.0, 0.00872665)",0.374082416296,-0.348712265491,1.50853908062,"(0.000872665, 0.0, 0.0, 0.0, 0.000872665, 0.0, 0.0, 0.0, 0.000872665)",2.02964632094,2.85785003901,-0.516471694708,"(0.003, 0.0, 0.0, 0.0, 0.003, 0.0, 0.0, 0.0, 0.003)"
2022/01/11/19:03:36.547541,9532,1641924216,547189263,imu_iphone,-0.111804944282,0.11380173846,-0.00155309509811,0.987191170267,"(0.00872665, 0.0, 0.0, 0.0, 0.00872665, 0.0, 0.0, 0.0, 0.00872665)",0.304668188095,-0.307695686817,1.32614302635,"(0.000872665, 0.0, 0.0, 0.0, 0.000872665, 0.0, 0.0, 0.0, 0.000872665)",2.31537826136,2.92123561084,-0.41627497673,"(0.003, 0.0, 0.0, 0.0, 0.003, 0.0, 0.0, 0.0, 0.003)"
2022/01/11/19:03:36.577510,9533,1641924216,577179998,imu_iphone,-0.122357296406,0.110990282671,0.018370627905,0.986089432658,"(0.00872665, 0.0, 0.0, 0.0, 0.00872665, 0.0, 0.0, 0.0, 0.00872665)",0.225760504603,-0.25573399663,1.13879048824,"(0.000872665, 0.0, 0.0, 0.0, 0.000872665, 0.0, 0.0, 0.0, 0.000872665)",2.55163427889,2.9611381799,-0.352812221646,"(0.003, 0.0, 0.0, 0.0, 0.003, 0.0, 0.0, 0.0, 0.003)"
2022/01/11/19:03:36.607218,9534,1641924216,606925302,imu_iphone,-0.130898420753,0.107604683132,0.0348360798339,0.984922983362,"(0.00872665, 0.0, 0.0, 0.0, 0.00872665, 0.0, 0.0, 0.0, 0.00872665)",0.145461797714,-0.188250929117,0.944222986698,"(0.000872665, 0.0, 0.0, 0.0, 0.000872665, 0.0, 0.0, 0.0, 0.000872665)",2.75144474745,3.00350476563,-0.287625707388,"(0.003, 0.0, 0.0, 0.0, 0.003, 0.0, 0.0, 0.0, 0.003)"
2022/01/11/19:03:36.637820,9535,1641924216,636907406,imu_iphone,-0.137215181255,0.103907261239,0.0478430872885,0.983913773709,"(0.00872665, 0.0, 0.0, 0.0, 0.00872665, 0.0, 0.0, 0.0, 0.00872665)",0.0651452317834,-0.11074462533,0.74917691946,"(0.000872665, 0.0, 0.0, 0.0, 0.000872665, 0.0, 0.0, 0.0, 0.000872665)",2.89455535054,3.01513663173,-0.242640738487,"(0.003, 0.0, 0.0, 0.0, 0.003, 0.0, 0.0, 0.0, 0.003)"
2022/01/11/19:03:36.666571,9536,1641924216,666325910,imu_iphone,-0.141259593488,0.100116132324,0.0573849269102,0.98322401184,"(0.00872665, 0.0, 0.0, 0.0, 0.00872665, 0.0, 0.0, 0.0, 0.00872665)",-0.0190772283822,-0.034567900002,0.557761311531,"(0.000872665, 0.0, 0.0, 0.0, 0.000872665, 0.0, 0.0, 0.0, 0.000872665)",2.98891479313,3.00212306857,-0.195375355482,"(0.003, 0.0, 0.0, 0.0, 0.003, 0.0, 0.0, 0.0, 0.003)"
2022/01/11/19:03:36.716751,9537,1641924216,716414334,imu_iphone,-0.142970839577,0.0964186606495,0.0634759714323,0.982971811376,"(0.00872665, 0.0, 0.0, 0.0, 0.00872665, 0.0, 0.0, 0.0, 0.00872665)",-0.102604828775,0.052377898246,0.358841121197,"(0.000872665, 0.0, 0.0, 0.0, 0.000872665, 0.0, 0.0, 0.0, 0.000872665)",3.03571356833,2.97762206554,-0.201138955951,"(0.003, 0.0, 0.0, 0.0, 0.003, 0.0, 0.0, 0.0, 0.003)"
2022/01/11/19:03:36.726475,9538,1641924216,726158578,imu_iphone,-0.142432053468,0.092883376635,0.0661445814093,0.983214464316,"(0.00872665, 0.0, 0.0, 0.0, 0.00872665, 0.0, 0.0, 0.0, 0.00872665)",-0.190685525537,0.137672245502,0.162755072117,"(0.000872665, 0.0, 0.0, 0.0, 0.000872665, 0.0, 0.0, 0.0, 0.000872665)",3.00009350002,2.89586308032,-0.223461871147,"(0.003, 0.0, 0.0, 0.0, 0.003, 0.0, 0.0, 0.0, 0.003)"
2022/01/11/19:03:36.756909,9539,1641924216,756199861,imu_iphone,-0.139698110791,0.0895080203881,0.0654541936546,0.983965700957,"(0.00872665, 0.0, 0.0, 0.0, 0.00872665, 0.0, 0.0, 0.0, 0.00872665)",-0.274873197079,0.216257721186,-0.0275627374649,"(0.000872665, 0.0, 0.0, 0.0, 0.000872665, 0.0, 0.0, 0.0, 0.000872665)",2.91563748658,2.79714073777,-0.275734224916,"(0.003, 0.0, 0.0, 0.0, 0.003, 0.0, 0.0, 0.0, 0.003)"
2022/01/11/19:03:36.786145,9540,1641924216,785696547,imu_iphone,-0.134974572921,0.0862285925357,0.0615572495192,0.985168614769,"(0.00872665, 0.0, 0.0, 0.0, 0.00872665, 0.0, 0.0, 0.0, 0.00872665)",-0.353554517031,0.287224620581,-0.212943762541,"(0.000872665, 0.0, 0.0, 0.0, 0.000872665, 0.0, 0.0, 0.0, 0.000872665)",2.76958047152,2.67083035469,-0.364410758615,"(0.003, 0.0, 0.0, 0.0, 0.003, 0.0, 0.0, 0.0, 0.003)"
2022/01/11/19:03:36.816280,9541,1641924216,815805866,imu_iphone,-0.128480204956,0.082903380123,0.0546671783119,0.98672760482,"(0.00872665, 0.0, 0.0, 0.0, 0.00872665, 0.0, 0.0, 0.0, 0.00872665)",-0.428395539522,0.356354743242,-0.385777980089,"(0.000872665, 0.0, 0.0, 0.0, 0.000872665, 0.0, 0.0, 0.0, 0.000872665)",2.59314980239,2.52520310998,-0.448239950538,"(0.003, 0.0, 0.0, 0.0, 0.003, 0.0, 0.0, 0.0, 0.003)"
2022/01/11/19:03:36.845707,9542,1641924216,845294073,imu_iphone,-0.12051753917,0.0793670519713,0.0449478376322,0.988512056429,"(0.00872665, 0.0, 0.0, 0.0, 0.00872665, 0.0, 0.0, 0.0, 0.00872665)",-0.500754714012,0.407208442688,-0.559293091297,"(0.000872665, 0.0, 0.0, 0.0, 0.000872665, 0.0, 0.0, 0.0, 0.000872665)",2.38056258291,2.30615077034,-0.562588684559,"(0.003, 0.0, 0.0, 0.0, 0.003, 0.0, 0.0, 0.0, 0.003)"
2022/01/11/19:03:36.879418,9543,1641924216,877981236,imu_iphone,-0.111301073378,0.0754986112728,0.0324368023648,0.990383705749,"(0.00872665, 0.0, 0.0, 0.0, 0.00872665, 0.0, 0.0, 0.0, 0.00872665)",-0.567080378532,0.455513983965,-0.737743794918,"(0.000872665, 0.0, 0.0, 0.0, 0.000872665, 0.0, 0.0, 0.0, 0.000872665)",2.15943623587,2.11791530371,-0.676566705108,"(0.003, 0.0, 0.0, 0.0, 0.003, 0.0, 0.0, 0.0, 0.003)"
2022/01/11/19:03:36.905233,9544,1641924216,904842988,imu_iphone,-0.101113928662,0.0711834780436,0.0172002569266,0.992175910333,"(0.00872665, 0.0, 0.0, 0.0, 0.00872665, 0.0, 0.0, 0.0, 0.00872665)",-0.62160629034,0.487047165632,-0.918872237206,"(0.000872665, 0.0, 0.0, 0.0, 0.000872665, 0.0, 0.0, 0.0, 0.000872665)",1.92694699466,1.88983807907,-0.788894641399,"(0.003, 0.0, 0.0, 0.0, 0.003, 0.0, 0.0, 0.0, 0.003)"
2022/01/11/19:03:36.935282,9545,1641924216,934839009,imu_iphone,-0.0902880177689,0.0663184018303,-0.000715664957299,0.993704901492,"(0.00872665, 0.0, 0.0, 0.0, 0.00872665, 0.0, 0.0, 0.0, 0.00872665)",-0.6689915061,0.509084641933,-1.10005116463,"(0.000872665, 0.0, 0.0, 0.0, 0.000872665, 0.0, 0.0, 0.0, 0.000872665)",1.63579103082,1.64647067785,-0.872829083204,"(0.003, 0.0, 0.0, 0.0, 0.003, 0.0, 0.0, 0.0, 0.003)"
2022/01/11/19:03:36.964663,9546,1641924216,964347703,imu_iphone,-0.0792099456863,0.0607752656722,-0.0212416802982,0.994776830553,"(0.00872665, 0.0, 0.0, 0.0, 0.00872665, 0.0, 0.0, 0.0, 0.00872665)",-0.711586594582,0.518741309643,-1.28069376945,"(0.000872665, 0.0, 0.0, 0.0, 0.000872665, 0.0, 0.0, 0.0, 0.000872665)",1.3725236544,1.417521341,-0.933833668828,"(0.003, 0.0, 0.0, 0.0, 0.003, 0.0, 0.0, 0.0, 0.003)"
2022/01/11/19:03:36.994858,9547,1641924216,994454667,imu_iphone,-0.0681548923342,0.054447869858,-0.0443697929857,0.99519930747,"(0.00872665, 0.0, 0.0, 0.0, 0.00872665, 0.0, 0.0, 0.0, 0.00872665)",-0.746753573418,0.514919519424,-1.46772420406,"(0.000872665, 0.0, 0.0, 0.0, 0.000872665, 0.0, 0.0, 0.0, 0.000872665)",1.09122478053,1.16547148235,-0.983067224622,"(0.003, 0.0, 0.0, 0.0, 0.003, 0.0, 0.0, 0.0, 0.003)"
2022/01/11/19:03:37.024481,9548,1641924217,24066633,imu_iphone,-0.0576024902497,0.0472528784124,-0.069921946254,0.994766324335,"(0.00872665, 0.0, 0.0, 0.0, 0.00872665, 0.0, 0.0, 0.0, 0.00872665)",-0.774823486805,0.493911206722,-1.64474606514,"(0.000872665, 0.0, 0.0, 0.0, 0.000872665, 0.0, 0.0, 0.0, 0.000872665)",0.866341524348,0.94531416513,-1.03218792915,"(0.003, 0.0, 0.0, 0.0, 0.003, 0.0, 0.0, 0.0, 0.003)"
2022/01/11/19:03:37.054571,9549,1641924217,54084582,imu_iphone,-0.0479498925609,0.0391677465803,-0.0976782624925,0.993290316306,"(0.00872665, 0.0, 0.0, 0.0, 0.00872665, 0.0, 0.0, 0.0, 0.00872665)",-0.797669231892,0.470802813768,-1.81222581863,"(0.000872665, 0.0, 0.0, 0.0, 0.000872665, 0.0, 0.0, 0.0, 0.000872665)",0.643388434052,0.710340661258,-1.04055178642,"(0.003, 0.0, 0.0, 0.0, 0.003, 0.0, 0.0, 0.0, 0.003)"
2022/01/11/19:03:37.088622,9550,1641924217,88226860,imu_iphone,-0.0395954459157,0.0302300119272,-0.12737797879,0.99060244173,"(0.00872665, 0.0, 0.0, 0.0, 0.00872665, 0.0, 0.0, 0.0, 0.00872665)",-0.81671577692,0.43410974741,-1.95850849152,"(0.000872665, 0.0, 0.0, 0.0, 0.000872665, 0.0, 0.0, 0.0, 0.000872665)",0.456818546802,0.467627453841,-1.07285999179,"(0.003, 0.0, 0.0, 0.0, 0.003, 0.0, 0.0, 0.0, 0.003)"
2022/01/11/19:03:37.113721,9551,1641924217,113424091,imu_iphone,-0.0328712007274,0.0205131986562,-0.158679341508,0.986569591779,"(0.00872665, 0.0, 0.0, 0.0, 0.00872665, 0.0, 0.0, 0.0, 0.00872665)",-0.83117389679,0.395836353302,-2.08460664749,"(0.000872665, 0.0, 0.0, 0.0, 0.000872665, 0.0, 0.0, 0.0, 0.000872665)",0.317380287498,0.252214530855,-1.07757577121,"(0.003, 0.0, 0.0, 0.0, 0.003, 0.0, 0.0, 0.0, 0.003)"
2022/01/11/19:03:37.143569,9552,1641924217,143230165,imu_iphone,-0.0281053236647,0.0101662881211,-0.191149032289,0.981105898883,"(0.00872665, 0.0, 0.0, 0.0, 0.00872665, 0.0, 0.0, 0.0, 0.00872665)",-0.842881441116,0.350555002689,-2.17902636528,"(0.000872665, 0.0, 0.0, 0.0, 0.000872665, 0.0, 0.0, 0.0, 0.000872665)",0.200871007293,0.0290666003712,-1.09438651621,"(0.003, 0.0, 0.0, 0.0, 0.003, 0.0, 0.0, 0.0, 0.003)"
2022/01/11/19:03:37.179572,9553,1641924217,179260859,imu_iphone,-0.0255256636896,-0.000543962010119,-0.224347413784,0.974174718686,"(0.00872665, 0.0, 0.0, 0.0, 0.00872665, 0.0, 0.0, 0.0, 0.00872665)",-0.851953208447,0.297133475542,-2.24478292465,"(0.000872665, 0.0, 0.0, 0.0, 0.000872665, 0.0, 0.0, 0.0, 0.000872665)",0.109616692029,-0.199693140518,-1.08351303399,"(0.003, 0.0, 0.0, 0.0, 0.003, 0.0, 0.0, 0.0, 0.003)"
2022/01/11/19:03:37.203241,9554,1641924217,202952383,imu_iphone,-0.0252801356428,-0.0113196250428,-0.257895938824,0.965775577227,"(0.00872665, 0.0, 0.0, 0.0, 0.00872665, 0.0, 0.0, 0.0, 0.00872665)",-0.862884819508,0.24382250011,-2.28800058365,"(0.000872665, 0.0, 0.0, 0.0, 0.000872665, 0.0, 0.0, 0.0, 0.000872665)",0.0500671494752,-0.42997346811,-1.08308209419,"(0.003, 0.0, 0.0, 0.0, 0.003, 0.0, 0.0, 0.0, 0.003)"
2022/01/11/19:03:37.233140,9555,1641924217,232863834,imu_iphone,-0.0273817253615,-0.0218320000806,-0.291355968998,0.955973485102,"(0.00872665, 0.0, 0.0, 0.0, 0.00872665, 0.0, 0.0, 0.0, 0.00872665)",-0.86185246706,0.18801151216,-2.2915058136,"(0.000872665, 0.0, 0.0, 0.0, 0.000872665, 0.0, 0.0, 0.0, 0.000872665)",0.0206915785745,-0.669146003723,-1.060656268,"(0.003, 0.0, 0.0, 0.0, 0.003, 0.0, 0.0, 0.0, 0.003)"
2022/01/11/19:03:37.262760,9556,1641924217,262436473,imu_iphone,-0.0317756232989,-0.0317416086687,-0.324271865107,0.944897104209,"(0.00872665, 0.0, 0.0, 0.0, 0.00872665, 0.0, 0.0, 0.0, 0.00872665)",-0.860811054707,0.134595632553,-2.26582455635,"(0.000872665, 0.0, 0.0, 0.0, 0.000872665, 0.0, 0.0, 0.0, 0.000872665)",0.0305787086114,-0.899590839073,-1.03306150317,"(0.003, 0.0, 0.0, 0.0, 0.003, 0.0, 0.0, 0.0, 0.003)"
2022/01/11/19:03:37.292370,9557,1641924217,292004189,imu_iphone,-0.0382536829363,-0.0407528718846,-0.356269771131,0.932709874159,"(0.00872665, 0.0, 0.0, 0.0, 0.00872665, 0.0, 0.0, 0.0, 0.00872665)",-0.852793455124,0.0830930992961,-2.20569133759,"(0.000872665, 0.0, 0.0, 0.0, 0.000872665, 0.0, 0.0, 0.0, 0.000872665)",0.0671437235177,-1.1411458227,-1.01002288878,"(0.003, 0.0, 0.0, 0.0, 0.003, 0.0, 0.0, 0.0, 0.003)"
2022/01/11/19:03:37.322228,9558,1641924217,321938426,imu_iphone,-0.0465745993498,-0.0486024300433,-0.386937498669,0.919645574454,"(0.00872665, 0.0, 0.0, 0.0, 0.00872665, 0.0, 0.0, 0.0, 0.00872665)",-0.841117978096,0.0322008766234,-2.11343693733,"(0.000872665, 0.0, 0.0, 0.0, 0.000872665, 0.0, 0.0, 0.0, 0.000872665)",0.131896155104,-1.38037485704,-0.973266706467,"(0.003, 0.0, 0.0, 0.0, 0.003, 0.0, 0.0, 0.0, 0.003)"
2022/01/11/19:03:37.351950,9559,1641924217,351669424,imu_iphone,-0.0563589449356,-0.0551778864007,-0.41594627122,0.905962344491,"(0.00872665, 0.0, 0.0, 0.0, 0.00872665, 0.0, 0.0, 0.0, 0.00872665)",-0.826330542564,-0.0188665688038,-2.00114870071,"(0.000872665, 0.0, 0.0, 0.0, 0.000872665, 0.0, 0.0, 0.0, 0.000872665)",0.219170563035,-1.65447946295,-0.931870173812,"(0.003, 0.0, 0.0, 0.0, 0.003, 0.0, 0.0, 0.0, 0.003)"
2022/01/11/19:03:37.381727,9560,1641924217,381424935,imu_iphone,-0.0672405450478,-0.0603325726103,-0.443141087034,0.891888259126,"(0.00872665, 0.0, 0.0, 0.0, 0.00872665, 0.0, 0.0, 0.0, 0.00872665)",-0.797763586044,-0.0630453452468,-1.87975978851,"(0.000872665, 0.0, 0.0, 0.0, 0.000872665, 0.0, 0.0, 0.0, 0.000872665)",0.343416257724,-1.93824922398,-0.900036177635,"(0.003, 0.0, 0.0, 0.0, 0.003, 0.0, 0.0, 0.0, 0.003)"
2022/01/11/19:03:37.412450,9561,1641924217,412079479,imu_iphone,-0.0787832815846,-0.0639624708831,-0.468485663071,0.877623598337,"(0.00872665, 0.0, 0.0, 0.0, 0.00872665, 0.0, 0.0, 0.0, 0.00872665)",-0.757680296898,-0.0975103974342,-1.75239741802,"(0.000872665, 0.0, 0.0, 0.0, 0.000872665, 0.0, 0.0, 0.0, 0.000872665)",0.511328995451,-2.24958802208,-0.828793117404,"(0.003, 0.0, 0.0, 0.0, 0.003, 0.0, 0.0, 0.0, 0.003)"
2022/01/11/19:03:37.441485,9562,1641924217,441134419,imu_iphone,-0.0905538807607,-0.0660770263023,-0.491950183098,0.863376417691,"(0.00872665, 0.0, 0.0, 0.0, 0.00872665, 0.0, 0.0, 0.0, 0.00872665)",-0.707606613636,-0.119658090174,-1.62918174267,"(0.000872665, 0.0, 0.0, 0.0, 0.000872665, 0.0, 0.0, 0.0, 0.000872665)",0.682397036925,-2.52742943734,-0.763124207854,"(0.003, 0.0, 0.0, 0.0, 0.003, 0.0, 0.0, 0.0, 0.003)"
2022/01/11/19:03:37.477261,9563,1641924217,476957992,imu_iphone,-0.102069726709,-0.0667505090742,-0.513551663277,0.849347296206,"(0.00872665, 0.0, 0.0, 0.0, 0.00872665, 0.0, 0.0, 0.0, 0.00872665)",-0.642209589481,-0.130056783557,-1.50279963017,"(0.000872665, 0.0, 0.0, 0.0, 0.000872665, 0.0, 0.0, 0.0, 0.000872665)",0.927897867858,-2.82576198131,-0.66664573431,"(0.003, 0.0, 0.0, 0.0, 0.003, 0.0, 0.0, 0.0, 0.003)"
2022/01/11/19:03:37.500987,9564,1641924217,500569771,imu_iphone,-0.112853118773,-0.0661286664891,-0.533242102942,0.835789466733,"(0.00872665, 0.0, 0.0, 0.0, 0.00872665, 0.0, 0.0, 0.0, 0.00872665)",-0.564777970314,-0.120703689754,-1.37430763245,"(0.000872665, 0.0, 0.0, 0.0, 0.000872665, 0.0, 0.0, 0.0, 0.000872665)",1.18043933116,-3.07340296626,-0.54823318541,"(0.003, 0.0, 0.0, 0.0, 0.003, 0.0, 0.0, 0.0, 0.003)"
2022/01/11/19:03:37.531213,9565,1641924217,530788712,imu_iphone,-0.122453025848,-0.0644484920205,-0.550973264348,0.822970297344,"(0.00872665, 0.0, 0.0, 0.0, 0.00872665, 0.0, 0.0, 0.0, 0.00872665)",-0.477078169584,-0.100483842194,-1.24264490604,"(0.000872665, 0.0, 0.0, 0.0, 0.000872665, 0.0, 0.0, 0.0, 0.000872665)",1.42241969973,-3.30545088887,-0.45457657814,"(0.003, 0.0, 0.0, 0.0, 0.003, 0.0, 0.0, 0.0, 0.003)"
2022/01/11/19:03:37.560745,9566,1641924217,560411564,imu_iphone,-0.130519994748,-0.0620084898912,-0.566649754848,0.811188962871,"(0.00872665, 0.0, 0.0, 0.0, 0.00872665, 0.0, 0.0, 0.0, 0.00872665)",-0.380941182375,-0.0666118934751,-1.10289752483,"(0.000872665, 0.0, 0.0, 0.0, 0.000872665, 0.0, 0.0, 0.0, 0.000872665)",1.6025580883,-3.47112765133,-0.342016507387,"(0.003, 0.0, 0.0, 0.0, 0.003, 0.0, 0.0, 0.0, 0.003)"
2022/01/11/19:03:37.590081,9567,1641924217,589802520,imu_iphone,-0.136759396156,-0.0591802314683,-0.580152505916,0.8007606619,"(0.00872665, 0.0, 0.0, 0.0, 0.00872665, 0.0, 0.0, 0.0, 0.00872665)",-0.279092222452,-0.0203050952405,-0.955875515938,"(0.000872665, 0.0, 0.0, 0.0, 0.000872665, 0.0, 0.0, 0.0, 0.000872665)",1.72976192594,-3.58920983255,-0.266672210097,"(0.003, 0.0, 0.0, 0.0, 0.003, 0.0, 0.0, 0.0, 0.003)"
2022/01/11/19:03:37.620224,9568,1641924217,619853758,imu_iphone,-0.141029983489,-0.0562140397075,-0.591446440966,0.791922744316,"(0.00872665, 0.0, 0.0, 0.0, 0.00872665, 0.0, 0.0, 0.0, 0.00872665)",-0.17208519578,0.0314524173737,-0.80467158556,"(0.000872665, 0.0, 0.0, 0.0, 0.000872665, 0.0, 0.0, 0.0, 0.000872665)",1.79999590293,-3.65253839403,-0.194915764332,"(0.003, 0.0, 0.0, 0.0, 0.003, 0.0, 0.0, 0.0, 0.003)"
2022/01/11/19:03:37.650215,9569,1641924217,649754507,imu_iphone,-0.14326335206,-0.0534182888249,-0.600511830568,0.784861541754,"(0.00872665, 0.0, 0.0, 0.0, 0.00872665, 0.0, 0.0, 0.0, 0.00872665)",-0.0726525709033,0.0842366889119,-0.650422692299,"(0.000872665, 0.0, 0.0, 0.0, 0.000872665, 0.0, 0.0, 0.0, 0.000872665)",1.80291278645,-3.65968281448,-0.187737722397,"(0.003, 0.0, 0.0, 0.0, 0.003, 0.0, 0.0, 0.0, 0.003)"
2022/01/11/19:03:37.679766,9570,1641924217,679395943,imu_iphone,-0.143530157868,-0.0509521128773,-0.607349152207,0.779698649024,"(0.00872665, 0.0, 0.0, 0.0, 0.00872665, 0.0, 0.0, 0.0, 0.00872665)",0.0280733536929,0.134596601129,-0.486071377993,"(0.000872665, 0.0, 0.0, 0.0, 0.000872665, 0.0, 0.0, 0.0, 0.000872665)",1.75527742088,-3.59508394539,-0.201103872657,"(0.003, 0.0, 0.0, 0.0, 0.003, 0.0, 0.0, 0.0, 0.003)"
2022/01/11/19:03:37.715823,9571,1641924217,715247038,imu_iphone,-0.141872633861,-0.048957914098,-0.611942098499,0.776532128436,"(0.00872665, 0.0, 0.0, 0.0, 0.00872665, 0.0, 0.0, 0.0, 0.00872665)",0.124479003251,0.180642575026,-0.320100426674,"(0.000872665, 0.0, 0.0, 0.0, 0.000872665, 0.0, 0.0, 0.0, 0.000872665)",1.68746857658,-3.50621971607,-0.216653373241,"(0.003, 0.0, 0.0, 0.0, 0.003, 0.0, 0.0, 0.0, 0.003)"
2022/01/11/19:03:37.740510,9572,1641924217,739628006,imu_iphone,-0.138446710499,-0.0474678168202,-0.614283432028,0.775393564491,"(0.00872665, 0.0, 0.0, 0.0, 0.00872665, 0.0, 0.0, 0.0, 0.00872665)",0.213846892118,0.218609586358,-0.148697540164,"(0.000872665, 0.0, 0.0, 0.0, 0.000872665, 0.0, 0.0, 0.0, 0.000872665)",1.57394386142,-3.37733012617,-0.283757774234,"(0.003, 0.0, 0.0, 0.0, 0.003, 0.0, 0.0, 0.0, 0.003)"
2022/01/11/19:03:37.769084,9573,1641924217,768798262,imu_iphone,-0.133371477933,-0.0464906147709,-0.614390807918,0.776256791763,"(0.00872665, 0.0, 0.0, 0.0, 0.00872665, 0.0, 0.0, 0.0, 0.00872665)",0.300752580166,0.255178421736,0.0272071361542,"(0.000872665, 0.0, 0.0, 0.0, 0.000872665, 0.0, 0.0, 0.0, 0.000872665)",1.4623221226,-3.22826822698,-0.314764974117,"(0.003, 0.0, 0.0, 0.0, 0.003, 0.0, 0.0, 0.0, 0.003)"
2022/01/11/19:03:37.798823,9574,1641924217,798507426,imu_iphone,-0.126819175734,-0.0459072251419,-0.612279164367,0.779053045837,"(0.00872665, 0.0, 0.0, 0.0, 0.00872665, 0.0, 0.0, 0.0, 0.00872665)",0.378389805555,0.285628467798,0.200583159924,"(0.000872665, 0.0, 0.0, 0.0, 0.000872665, 0.0, 0.0, 0.0, 0.000872665)",1.34414273143,-3.08003370881,-0.397614172697,"(0.003, 0.0, 0.0, 0.0, 0.003, 0.0, 0.0, 0.0, 0.003)"
2022/01/11/19:03:37.828731,9575,1641924217,828381874,imu_iphone,-0.118841045734,-0.0456182204279,-0.607966491346,0.783691603384,"(0.00872665, 0.0, 0.0, 0.0, 0.00872665, 0.0, 0.0, 0.0, 0.00872665)",0.453440904617,0.31617295742,0.380358606577,"(0.000872665, 0.0, 0.0, 0.0, 0.000872665, 0.0, 0.0, 0.0, 0.000872665)",1.2171423769,-2.89483601689,-0.46896248281,"(0.003, 0.0, 0.0, 0.0, 0.003, 0.0, 0.0, 0.0, 0.003)"
2022/01/11/19:03:37.858949,9576,1641924217,858512278,imu_iphone,-0.109577427713,-0.0453944613277,-0.601460866599,0.790048704933,"(0.00872665, 0.0, 0.0, 0.0, 0.00872665, 0.0, 0.0, 0.0, 0.00872665)",0.528834939003,0.333616167307,0.553455412388,"(0.000872665, 0.0, 0.0, 0.0, 0.000872665, 0.0, 0.0, 0.0, 0.000872665)",1.07393280968,-2.69563131988,-0.557276489139,"(0.003, 0.0, 0.0, 0.0, 0.003, 0.0, 0.0, 0.0, 0.003)"
2022/01/11/19:03:37.888373,9577,1641924217,887954199,imu_iphone,-0.0991588235059,-0.045017770161,-0.592797383892,0.797955004835,"(0.00872665, 0.0, 0.0, 0.0, 0.00872665, 0.0, 0.0, 0.0, 0.00872665)",0.592525422573,0.347370177507,0.724830389023,"(0.000872665, 0.0, 0.0, 0.0, 0.000872665, 0.0, 0.0, 0.0, 0.000872665)",0.915216865093,-2.49470403314,-0.654497559071,"(0.003, 0.0, 0.0, 0.0, 0.003, 0.0, 0.0, 0.0, 0.003)"
2022/01/11/19:03:37.918869,9578,1641924217,918497270,imu_iphone,-0.0878090353904,-0.0441918305364,-0.582046962326,0.807191420337,"(0.00872665, 0.0, 0.0, 0.0, 0.00872665, 0.0, 0.0, 0.0, 0.00872665)",0.656101405621,0.349528998137,0.886367738247,"(0.000872665, 0.0, 0.0, 0.0, 0.000872665, 0.0, 0.0, 0.0, 0.000872665)",0.737189029008,-2.27668504268,-0.7413474226,"(0.003, 0.0, 0.0, 0.0, 0.003, 0.0, 0.0, 0.0, 0.003)"
2022/01/11/19:03:37.948210,9579,1641924217,947831658,imu_iphone,-0.0756704535261,-0.042594737963,-0.569389552828,0.817468780989,"(0.00872665, 0.0, 0.0, 0.0, 0.00872665, 0.0, 0.0, 0.0, 0.00872665)",0.716466784477,0.351589262486,1.03322410583,"(0.000872665, 0.0, 0.0, 0.0, 0.000872665, 0.0, 0.0, 0.0, 0.000872665)",0.555044533834,-2.01245653018,-0.818097390532,"(0.003, 0.0, 0.0, 0.0, 0.003, 0.0, 0.0, 0.0, 0.003)"
2022/01/11/19:03:37.996694,9580,1641924217,996291129,imu_iphone,-0.0630442319342,-0.0399489574175,-0.554916188294,0.82855146466,"(0.00872665, 0.0, 0.0, 0.0, 0.00872665, 0.0, 0.0, 0.0, 0.00872665)",0.765991687775,0.343578398228,1.17409455776,"(0.000872665, 0.0, 0.0, 0.0, 0.000872665, 0.0, 0.0, 0.0, 0.000872665)",0.36193965219,-1.72080852315,-0.859682203531,"(0.003, 0.0, 0.0, 0.0, 0.003, 0.0, 0.0, 0.0, 0.003)"
2022/01/11/19:03:38.007829,9581,1641924218,7412197,imu_iphone,-0.0502584503125,-0.0360681661211,-0.538764278611,0.840182258595,"(0.00872665, 0.0, 0.0, 0.0, 0.00872665, 0.0, 0.0, 0.0, 0.00872665)",0.814188838005,0.323355972767,1.29698324203,"(0.000872665, 0.0, 0.0, 0.0, 0.000872665, 0.0, 0.0, 0.0, 0.000872665)",0.162061282843,-1.4073856312,-0.943276922107,"(0.003, 0.0, 0.0, 0.0, 0.003, 0.0, 0.0, 0.0, 0.003)"
2022/01/11/19:03:38.037680,9582,1641924218,37319020,imu_iphone,-0.0377331141532,-0.0307715180667,-0.521131727059,0.852086291889,"(0.00872665, 0.0, 0.0, 0.0, 0.00872665, 0.0, 0.0, 0.0, 0.00872665)",0.844336509705,0.295872867107,1.40754055977,"(0.000872665, 0.0, 0.0, 0.0, 0.000872665, 0.0, 0.0, 0.0, 0.000872665)",-0.0400664007291,-1.05082958356,-0.96215816617,"(0.003, 0.0, 0.0, 0.0, 0.003, 0.0, 0.0, 0.0, 0.003)"
2022/01/11/19:03:38.067086,9583,1641924218,66771196,imu_iphone,-0.0258565310289,-0.0240343301392,-0.502044701909,0.864120887413,"(0.00872665, 0.0, 0.0, 0.0, 0.00872665, 0.0, 0.0, 0.0, 0.00872665)",0.865791976452,0.255122005939,1.51686739922,"(0.000872665, 0.0, 0.0, 0.0, 0.000872665, 0.0, 0.0, 0.0, 0.000872665)",-0.225130885765,-0.669953211844,-0.972429385185,"(0.003, 0.0, 0.0, 0.0, 0.003, 0.0, 0.0, 0.0, 0.003)"
2022/01/11/19:03:38.098048,9584,1641924218,96961561,imu_iphone,-0.015057604915,-0.0158877750279,-0.481503518562,0.876170764607,"(0.00872665, 0.0, 0.0, 0.0, 0.00872665, 0.0, 0.0, 0.0, 0.00872665)",0.873254001141,0.207248285413,1.61977910995,"(0.000872665, 0.0, 0.0, 0.0, 0.000872665, 0.0, 0.0, 0.0, 0.000872665)",-0.363664032631,-0.329298265167,-1.00707589209,"(0.003, 0.0, 0.0, 0.0, 0.003, 0.0, 0.0, 0.0, 0.003)"
2022/01/11/19:03:38.126655,9585,1641924218,126294550,imu_iphone,-0.00572143383865,-0.00643221412032,-0.459474410232,0.888149288216,"(0.00872665, 0.0, 0.0, 0.0, 0.00872665, 0.0, 0.0, 0.0, 0.00872665)",0.872006654739,0.151614308357,1.71716928482,"(0.000872665, 0.0, 0.0, 0.0, 0.000872665, 0.0, 0.0, 0.0, 0.000872665)",-0.455403520614,0.020154950358,-0.973532170057,"(0.003, 0.0, 0.0, 0.0, 0.003, 0.0, 0.0, 0.0, 0.003)"
2022/01/11/19:03:38.157532,9586,1641924218,157227460,imu_iphone,0.00177089878925,0.00415037630075,-0.435988588655,0.899940880756,"(0.00872665, 0.0, 0.0, 0.0, 0.00872665, 0.0, 0.0, 0.0, 0.00872665)",0.859048604965,0.0909473076463,1.8040304184,"(0.000872665, 0.0, 0.0, 0.0, 0.000872665, 0.0, 0.0, 0.0, 0.000872665)",-0.490187985264,0.33406995859,-0.972328228354,"(0.003, 0.0, 0.0, 0.0, 0.003, 0.0, 0.0, 0.0, 0.003)"
2022/01/11/19:03:38.185553,9587,1641924218,185292181,imu_iphone,0.00718053374825,0.0155977794797,-0.41098685145,0.911479542911,"(0.00872665, 0.0, 0.0, 0.0, 0.00872665, 0.0, 0.0, 0.0, 0.00872665)",0.837434649467,0.0345741733909,1.89099657536,"(0.000872665, 0.0, 0.0, 0.0, 0.000872665, 0.0, 0.0, 0.0, 0.000872665)",-0.493467176892,0.652832125872,-0.915592694879,"(0.003, 0.0, 0.0, 0.0, 0.003, 0.0, 0.0, 0.0, 0.003)"
2022/01/11/19:03:38.215169,9588,1641924218,214781889,imu_iphone,0.0103133026109,0.027630614842,-0.384504530927,0.92265185775,"(0.00872665, 0.0, 0.0, 0.0, 0.00872665, 0.0, 0.0, 0.0, 0.00872665)",0.813809275627,-0.0232950523496,1.95573616028,"(0.000872665, 0.0, 0.0, 0.0, 0.000872665, 0.0, 0.0, 0.0, 0.000872665)",-0.450818755366,0.908497098684,-0.917892404795,"(0.003, 0.0, 0.0, 0.0, 0.003, 0.0, 0.0, 0.0, 0.003)"
2022/01/11/19:03:38.245189,9589,1641924218,244923770,imu_iphone,0.0110460179219,0.0399278898457,-0.356780189273,0.933269331781,"(0.00872665, 0.0, 0.0, 0.0, 0.00872665, 0.0, 0.0, 0.0, 0.00872665)",0.784502446651,-0.0794870108366,1.99511492252,"(0.000872665, 0.0, 0.0, 0.0, 0.000872665, 0.0, 0.0, 0.0, 0.000872665)",-0.367490085103,1.15271578141,-0.874474489689,"(0.003, 0.0, 0.0, 0.0, 0.003, 0.0, 0.0, 0.0, 0.003)"
2022/01/11/19:03:38.275757,9590,1641924218,275418786,imu_iphone,0.00934195240632,0.0521165425904,-0.327996646316,0.943193932296,"(0.00872665, 0.0, 0.0, 0.0, 0.00872665, 0.0, 0.0, 0.0, 0.00872665)",0.751271188259,-0.130218714476,2.02006602287,"(0.000872665, 0.0, 0.0, 0.0, 0.000872665, 0.0, 0.0, 0.0, 0.000872665)",-0.266799533218,1.39997837842,-0.83488065362,"(0.003, 0.0, 0.0, 0.0, 0.003, 0.0, 0.0, 0.0, 0.003)"
2022/01/11/19:03:38.305596,9591,1641924218,305202472,imu_iphone,0.00532960773357,0.0638750573255,-0.29844383349,0.952272466569,"(0.00872665, 0.0, 0.0, 0.0, 0.00872665, 0.0, 0.0, 0.0, 0.00872665)",0.716276824474,-0.177390605211,2.01676678658,"(0.000872665, 0.0, 0.0, 0.0, 0.000872665, 0.0, 0.0, 0.0, 0.000872665)",-0.132711549327,1.59046166092,-0.792975997925,"(0.003, 0.0, 0.0, 0.0, 0.003, 0.0, 0.0, 0.0, 0.003)"
2022/01/11/19:03:38.338317,9592,1641924218,337938452,imu_iphone,-0.000820734423241,0.0748422841796,-0.268468012239,0.960376428958,"(0.00872665, 0.0, 0.0, 0.0, 0.00872665, 0.0, 0.0, 0.0, 0.00872665)",0.677095115185,-0.218012958765,1.98796701431,"(0.000872665, 0.0, 0.0, 0.0, 0.000872665, 0.0, 0.0, 0.0, 0.000872665)",0.0290258343145,1.77398354083,-0.757465272546,"(0.003, 0.0, 0.0, 0.0, 0.003, 0.0, 0.0, 0.0, 0.003)"
2022/01/11/19:03:38.365239,9593,1641924218,364896438,imu_iphone,-0.00881728916059,0.0847141961075,-0.238519110705,0.967395676142,"(0.00872665, 0.0, 0.0, 0.0, 0.00872665, 0.0, 0.0, 0.0, 0.00872665)",0.634556889534,-0.251031547785,1.93495130539,"(0.000872665, 0.0, 0.0, 0.0, 0.000872665, 0.0, 0.0, 0.0, 0.000872665)",0.20319509279,1.96510987088,-0.697374022007,"(0.003, 0.0, 0.0, 0.0, 0.003, 0.0, 0.0, 0.0, 0.003)"
2022/01/11/19:03:38.394790,9594,1641924218,394528283,imu_iphone,-0.0183193635735,0.0932679475236,-0.208982326884,0.9732892057,"(0.00872665, 0.0, 0.0, 0.0, 0.00872665, 0.0, 0.0, 0.0, 0.00872665)",0.587245941162,-0.276194572449,1.85997998714,"(0.000872665, 0.0, 0.0, 0.0, 0.000872665, 0.0, 0.0, 0.0, 0.000872665)",0.397391539961,2.12220920652,-0.654764192104,"(0.003, 0.0, 0.0, 0.0, 0.003, 0.0, 0.0, 0.0, 0.003)"
2022/01/11/19:03:38.424551,9595,1641924218,424251229,imu_iphone,-0.0289080832867,0.100348192096,-0.180285864825,0.978054993345,"(0.00872665, 0.0, 0.0, 0.0, 0.00872665, 0.0, 0.0, 0.0, 0.00872665)",0.541037976742,-0.295283317566,1.76851201057,"(0.000872665, 0.0, 0.0, 0.0, 0.000872665, 0.0, 0.0, 0.0, 0.000872665)",0.619884673655,2.27692843303,-0.587886663079,"(0.003, 0.0, 0.0, 0.0, 0.003, 0.0, 0.0, 0.0, 0.003)"
2022/01/11/19:03:38.454342,9596,1641924218,454065838,imu_iphone,-0.0401782138093,0.105872668714,-0.1527555858,0.981754765795,"(0.00872665, 0.0, 0.0, 0.0, 0.00872665, 0.0, 0.0, 0.0, 0.00872665)",0.486413657665,-0.307496160269,1.66540408134,"(0.000872665, 0.0, 0.0, 0.0, 0.000872665, 0.0, 0.0, 0.0, 0.000872665)",0.857107528299,2.43129024848,-0.544085170627,"(0.003, 0.0, 0.0, 0.0, 0.003, 0.0, 0.0, 0.0, 0.003)"
2022/01/11/19:03:38.484263,9597,1641924218,483904349,imu_iphone,-0.0516812593115,0.109790376499,-0.126721680171,0.984488058048,"(0.00872665, 0.0, 0.0, 0.0, 0.00872665, 0.0, 0.0, 0.0, 0.00872665)",0.427826106548,-0.302664071321,1.55430102348,"(0.000872665, 0.0, 0.0, 0.0, 0.000872665, 0.0, 0.0, 0.0, 0.000872665)",1.09848570675,2.55246399879,-0.4836471802,"(0.003, 0.0, 0.0, 0.0, 0.003, 0.0, 0.0, 0.0, 0.003)"
2022/01/11/19:03:38.514192,9598,1641924218,513891355,imu_iphone,-0.0630090063839,0.112167707782,-0.102435948429,0.986384887818,"(0.00872665, 0.0, 0.0, 0.0, 0.00872665, 0.0, 0.0, 0.0, 0.00872665)",0.364980757236,-0.285936057568,1.43224132061,"(0.000872665, 0.0, 0.0, 0.0, 0.000872665, 0.0, 0.0, 0.0, 0.000872665)",1.35143289372,2.65665845811,-0.421443915367,"(0.003, 0.0, 0.0, 0.0, 0.003, 0.0, 0.0, 0.0, 0.003)"
2022/01/11/19:03:38.543920,9599,1641924218,543423692,imu_iphone,-0.0737267870098,0.113068564254,-0.0801582423386,0.987600383171,"(0.00872665, 0.0, 0.0, 0.0, 0.00872665, 0.0, 0.0, 0.0, 0.00872665)",0.296021729708,-0.259138166904,1.31015837193,"(0.000872665, 0.0, 0.0, 0.0, 0.000872665, 0.0, 0.0, 0.0, 0.000872665)",1.57332507983,2.75438472748,-0.365262697935,"(0.003, 0.0, 0.0, 0.0, 0.003, 0.0, 0.0, 0.0, 0.003)"
2022/01/11/19:03:38.574208,9600,1641924218,573813364,imu_iphone,-0.0835191733999,0.112645118565,-0.0600273251726,0.988297700681,"(0.00872665, 0.0, 0.0, 0.0, 0.00872665, 0.0, 0.0, 0.0, 0.00872665)",0.222545832396,-0.227272212505,1.18484508991,"(0.000872665, 0.0, 0.0, 0.0, 0.000872665, 0.0, 0.0, 0.0, 0.000872665)",1.79554573327,2.83476318508,-0.299145306945,"(0.003, 0.0, 0.0, 0.0, 0.003, 0.0, 0.0, 0.0, 0.003)"
2022/01/11/19:03:38.603392,9601,1641924218,603117487,imu_iphone,-0.092072622859,0.111028962961,-0.0422846997129,0.988639067443,"(0.00872665, 0.0, 0.0, 0.0, 0.00872665, 0.0, 0.0, 0.0, 0.00872665)",0.146452024579,-0.176214039326,1.04576981068,"(0.000872665, 0.0, 0.0, 0.0, 0.000872665, 0.0, 0.0, 0.0, 0.000872665)",2.0183122243,2.8774899593,-0.254459715486,"(0.003, 0.0, 0.0, 0.0, 0.003, 0.0, 0.0, 0.0, 0.003)"
2022/01/11/19:03:38.633821,9602,1641924218,633093744,imu_iphone,-0.0990421958318,0.108436623857,-0.0271610829597,0.988784312994,"(0.00872665, 0.0, 0.0, 0.0, 0.00872665, 0.0, 0.0, 0.0, 0.00872665)",0.0662694647908,-0.116929754615,0.900271058083,"(0.000872665, 0.0, 0.0, 0.0, 0.000872665, 0.0, 0.0, 0.0, 0.000872665)",2.16526210919,2.90605711609,-0.182761157155,"(0.003, 0.0, 0.0, 0.0, 0.003, 0.0, 0.0, 0.0, 0.003)"
2022/01/11/19:03:38.662983,9603,1641924218,662568396,imu_iphone,-0.104237397016,0.105074269376,-0.0148027706204,0.988875543716,"(0.00872665, 0.0, 0.0, 0.0, 0.00872665, 0.0, 0.0, 0.0, 0.00872665)",-0.0151803772897,-0.0562050417066,0.745522141457,"(0.000872665, 0.0, 0.0, 0.0, 0.000872665, 0.0, 0.0, 0.0, 0.000872665)",2.27743611753,2.88836987346,-0.180863735676,"(0.003, 0.0, 0.0, 0.0, 0.003, 0.0, 0.0, 0.0, 0.003)"
2022/01/11/19:03:38.692943,9604,1641924218,692561661,imu_iphone,-0.10754972371,0.101134708387,-0.00533641247938,0.989027982613,"(0.00872665, 0.0, 0.0, 0.0, 0.00872665, 0.0, 0.0, 0.0, 0.00872665)",-0.0980140194297,0.0141784651205,0.581338882446,"(0.000872665, 0.0, 0.0, 0.0, 0.000872665, 0.0, 0.0, 0.0, 0.000872665)",2.340207147,2.82825728059,-0.161474368572,"(0.003, 0.0, 0.0, 0.0, 0.003, 0.0, 0.0, 0.0, 0.003)"
2022/01/11/19:03:38.725254,9605,1641924218,723413058,imu_iphone,-0.10889115238,0.0968304909985,0.00111484762054,0.989325694633,"(0.00872665, 0.0, 0.0, 0.0, 0.00872665, 0.0, 0.0, 0.0, 0.00872665)",-0.177356079221,0.0874386057258,0.404296189547,"(0.000872665, 0.0, 0.0, 0.0, 0.000872665, 0.0, 0.0, 0.0, 0.000872665)",2.33455727488,2.74277683496,-0.193563303351,"(0.003, 0.0, 0.0, 0.0, 0.003, 0.0, 0.0, 0.0, 0.003)"
2022/01/11/19:03:38.752305,9606,1641924218,752005030,imu_iphone,-0.108311399936,0.0923138062442,0.00443278442781,0.98981167514,"(0.00872665, 0.0, 0.0, 0.0, 0.00872665, 0.0, 0.0, 0.0, 0.00872665)",-0.250933587551,0.155261516571,0.219073161483,"(0.000872665, 0.0, 0.0, 0.0, 0.000872665, 0.0, 0.0, 0.0, 0.000872665)",2.28609306648,2.61976369679,-0.21714220047,"(0.003, 0.0, 0.0, 0.0, 0.003, 0.0, 0.0, 0.0, 0.003)"
2022/01/11/19:03:38.782450,9607,1641924218,782155146,imu_iphone,-0.105876964916,0.0876752397527,0.00461064423277,0.990495766066,"(0.00872665, 0.0, 0.0, 0.0, 0.00872665, 0.0, 0.0, 0.0, 0.00872665)",-0.323299229145,0.212045967579,0.0315332189202,"(0.000872665, 0.0, 0.0, 0.0, 0.000872665, 0.0, 0.0, 0.0, 0.000872665)",2.15680835098,2.4627586475,-0.295463315248,"(0.003, 0.0, 0.0, 0.0, 0.003, 0.0, 0.0, 0.0, 0.003)"
2022/01/11/19:03:38.811821,9608,1641924218,811563898,imu_iphone,-0.101822067034,0.0829184524325,0.00170913293628,0.991339435197,"(0.00872665, 0.0, 0.0, 0.0, 0.00872665, 0.0, 0.0, 0.0, 0.00872665)",-0.389168828726,0.271733671427,-0.153411000967,"(0.000872665, 0.0, 0.0, 0.0, 0.000872665, 0.0, 0.0, 0.0, 0.000872665)",2.02526748732,2.32106935635,-0.351334045529,"(0.003, 0.0, 0.0, 0.0, 0.003, 0.0, 0.0, 0.0, 0.003)"
2022/01/11/19:03:38.842037,9609,1641924218,841615512,imu_iphone,-0.0963870786615,0.0779834024141,-0.00413607793804,0.99227567383,"(0.00872665, 0.0, 0.0, 0.0, 0.00872665, 0.0, 0.0, 0.0, 0.00872665)",-0.450994104147,0.316581815481,-0.339832544327,"(0.000872665, 0.0, 0.0, 0.0, 0.000872665, 0.0, 0.0, 0.0, 0.000872665)",1.86786614299,2.1206751895,-0.446195179224,"(0.003, 0.0, 0.0, 0.0, 0.003, 0.0, 0.0, 0.0, 0.003)"
2022/01/11/19:03:38.871572,9610,1641924218,871141314,imu_iphone,-0.0898144492716,0.072889482504,-0.0128930552028,0.993204036022,"(0.00872665, 0.0, 0.0, 0.0, 0.00872665, 0.0, 0.0, 0.0, 0.00872665)",-0.507445693016,0.353735029697,-0.528069496155,"(0.000872665, 0.0, 0.0, 0.0, 0.000872665, 0.0, 0.0, 0.0, 0.000872665)",1.68599361643,1.92964709267,-0.510689383149,"(0.003, 0.0, 0.0, 0.0, 0.003, 0.0, 0.0, 0.0, 0.003)"
2022/01/11/19:03:38.901905,9611,1641924218,901443628,imu_iphone,-0.0823655339951,0.0675167085782,-0.0244575063191,0.99401169171,"(0.00872665, 0.0, 0.0, 0.0, 0.00872665, 0.0, 0.0, 0.0, 0.00872665)",-0.552451789379,0.37971419096,-0.712366163731,"(0.000872665, 0.0, 0.0, 0.0, 0.000872665, 0.0, 0.0, 0.0, 0.000872665)",1.50101884961,1.70173899874,-0.587183243036,"(0.003, 0.0, 0.0, 0.0, 0.003, 0.0, 0.0, 0.0, 0.003)"
2022/01/11/19:03:38.931324,9612,1641924218,930824651,imu_iphone,-0.0743280487367,0.0618303875779,-0.0387277368134,0.994561464538,"(0.00872665, 0.0, 0.0, 0.0, 0.00872665, 0.0, 0.0, 0.0, 0.00872665)",-0.593962788582,0.397726804018,-0.899534702301,"(0.000872665, 0.0, 0.0, 0.0, 0.000872665, 0.0, 0.0, 0.0, 0.000872665)",1.29408851892,1.48174774244,-0.635011712909,"(0.003, 0.0, 0.0, 0.0, 0.003, 0.0, 0.0, 0.0, 0.003)"
2022/01/11/19:03:38.961943,9613,1641924218,961136424,imu_iphone,-0.0660189704513,0.055752023894,-0.0555923310531,0.994707343946,"(0.00872665, 0.0, 0.0, 0.0, 0.00872665, 0.0, 0.0, 0.0, 0.00872665)",-0.628080248833,0.407723218203,-1.07176673412,"(0.000872665, 0.0, 0.0, 0.0, 0.000872665, 0.0, 0.0, 0.0, 0.000872665)",1.09702068686,1.2513677381,-0.718908147812,"(0.003, 0.0, 0.0, 0.0, 0.003, 0.0, 0.0, 0.0, 0.003)"
2022/01/11/19:03:38.992041,9614,1641924218,991343575,imu_iphone,-0.0577384891962,0.0491986853075,-0.0749042059645,0.994301320606,"(0.00872665, 0.0, 0.0, 0.0, 0.00872665, 0.0, 0.0, 0.0, 0.00872665)",-0.653974354267,0.411162316799,-1.25540339947,"(0.000872665, 0.0, 0.0, 0.0, 0.000872665, 0.0, 0.0, 0.0, 0.000872665)",0.892862448022,1.01667906672,-0.723478331566,"(0.003, 0.0, 0.0, 0.0, 0.003, 0.0, 0.0, 0.0, 0.003)"
2022/01/11/19:03:39.021134,9615,1641924219,19938016,imu_iphone,-0.0497534711525,0.0421664497695,-0.0966328927412,0.993181084527,"(0.00872665, 0.0, 0.0, 0.0, 0.00872665, 0.0, 0.0, 0.0, 0.00872665)",-0.673579454422,0.39988720417,-1.42433106899,"(0.000872665, 0.0, 0.0, 0.0, 0.000872665, 0.0, 0.0, 0.0, 0.000872665)",0.716842911243,0.799934038371,-0.769774830937,"(0.003, 0.0, 0.0, 0.0, 0.003, 0.0, 0.0, 0.0, 0.003)"
2022/01/11/19:03:39.050233,9616,1641924219,49910739,imu_iphone,-0.0424075314952,0.0346028186945,-0.120519368088,0.991200952444,"(0.00872665, 0.0, 0.0, 0.0, 0.00872665, 0.0, 0.0, 0.0, 0.00872665)",-0.691866874695,0.381413787603,-1.57862365246,"(0.000872665, 0.0, 0.0, 0.0, 0.000872665, 0.0, 0.0, 0.0, 0.000872665)",0.551773455217,0.591518039815,-0.770246701241,"(0.003, 0.0, 0.0, 0.0, 0.003, 0.0, 0.0, 0.0, 0.003)"
2022/01/11/19:03:39.080113,9617,1641924219,79819960,imu_iphone,-0.0360016557266,0.026543388506,-0.146267896451,0.988233288136,"(0.00872665, 0.0, 0.0, 0.0, 0.00872665, 0.0, 0.0, 0.0, 0.00872665)",-0.69950658083,0.360326349735,-1.72110950947,"(0.000872665, 0.0, 0.0, 0.0, 0.000872665, 0.0, 0.0, 0.0, 0.000872665)",0.408824016005,0.375860557035,-0.799821333289,"(0.003, 0.0, 0.0, 0.0, 0.003, 0.0, 0.0, 0.0, 0.003)"
2022/01/11/19:03:39.110105,9618,1641924219,109770627,imu_iphone,-0.0307910498632,0.0180556700677,-0.173596324222,0.984169812707,"(0.00872665, 0.0, 0.0, 0.0, 0.00872665, 0.0, 0.0, 0.0, 0.00872665)",-0.709280133247,0.330650746822,-1.83721387386,"(0.000872665, 0.0, 0.0, 0.0, 0.000872665, 0.0, 0.0, 0.0, 0.000872665)",0.28437648274,0.178207692783,-0.805175043941,"(0.003, 0.0, 0.0, 0.0, 0.003, 0.0, 0.0, 0.0, 0.003)"
2022/01/11/19:03:39.139541,9619,1641924219,139209493,imu_iphone,-0.0269682616744,0.00920077749925,-0.202124703365,0.978945178672,"(0.00872665, 0.0, 0.0, 0.0, 0.00872665, 0.0, 0.0, 0.0, 0.00872665)",-0.715497612953,0.300845712423,-1.9292178154,"(0.000872665, 0.0, 0.0, 0.0, 0.000872665, 0.0, 0.0, 0.0, 0.000872665)",0.181289814971,-0.0115101891942,-0.815417611599,"(0.003, 0.0, 0.0, 0.0, 0.003, 0.0, 0.0, 0.0, 0.003)"
2022/01/11/19:03:39.194293,9620,1641924219,193883979,imu_iphone,-0.0247413370001,0.00011897329227,-0.231426825164,0.972537647952,"(0.00872665, 0.0, 0.0, 0.0, 0.00872665, 0.0, 0.0, 0.0, 0.00872665)",-0.721251964569,0.265411317348,-1.99272668362,"(0.000872665, 0.0, 0.0, 0.0, 0.000872665, 0.0, 0.0, 0.0, 0.000872665)",0.106195888147,-0.19823689146,-0.802965381145,"(0.003, 0.0, 0.0, 0.0, 0.003, 0.0, 0.0, 0.0, 0.003)"
2022/01/11/19:03:39.199314,9621,1641924219,198983288,imu_iphone,-0.0241910979874,-0.00900257707187,-0.261108334591,0.964964342342,"(0.00872665, 0.0, 0.0, 0.0, 0.00872665, 0.0, 0.0, 0.0, 0.00872665)",-0.722901940346,0.230088800192,-2.0297088623,"(0.000872665, 0.0, 0.0, 0.0, 0.000872665, 0.0, 0.0, 0.0, 0.000872665)",0.0342156402022,-0.386729873121,-0.792950270176,"(0.003, 0.0, 0.0, 0.0, 0.003, 0.0, 0.0, 0.0, 0.003)"
2022/01/11/19:03:39.229021,9622,1641924219,228678314,imu_iphone,-0.0254393275316,-0.0179278171196,-0.290780092384,0.956283625219,"(0.00872665, 0.0, 0.0, 0.0, 0.00872665, 0.0, 0.0, 0.0, 0.00872665)",-0.721853911877,0.188402459025,-2.03903985023,"(0.000872665, 0.0, 0.0, 0.0, 0.000872665, 0.0, 0.0, 0.0, 0.000872665)",-0.00638746183366,-0.597360029519,-0.774332150817,"(0.003, 0.0, 0.0, 0.0, 0.003, 0.0, 0.0, 0.0, 0.003)"
2022/01/11/19:03:39.275402,9623,1641924219,274990453,imu_iphone,-0.0283768422159,-0.0264837757448,-0.320040347809,0.946608440815,"(0.00872665, 0.0, 0.0, 0.0, 0.00872665, 0.0, 0.0, 0.0, 0.00872665)",-0.719288110733,0.145624697208,-2.01856446266,"(0.000872665, 0.0, 0.0, 0.0, 0.000872665, 0.0, 0.0, 0.0, 0.000872665)",-0.0148384060711,-0.791749471352,-0.759442216158,"(0.003, 0.0, 0.0, 0.0, 0.003, 0.0, 0.0, 0.0, 0.003)"
2022/01/11/19:03:39.288628,9624,1641924219,288257908,imu_iphone,-0.0329139723377,-0.0344241551833,-0.348531184675,0.936086353535,"(0.00872665, 0.0, 0.0, 0.0, 0.00872665, 0.0, 0.0, 0.0, 0.00872665)",-0.713768422604,0.104959301651,-1.96850371361,"(0.000872665, 0.0, 0.0, 0.0, 0.000872665, 0.0, 0.0, 0.0, 0.000872665)",-0.00617016468197,-1.00085781679,-0.75013754189,"(0.003, 0.0, 0.0, 0.0, 0.003, 0.0, 0.0, 0.0, 0.003)"
2022/01/11/19:03:39.318310,9625,1641924219,317984053,imu_iphone,-0.0388724910774,-0.0415905667253,-0.375926864698,0.924898992645,"(0.00872665, 0.0, 0.0, 0.0, 0.00872665, 0.0, 0.0, 0.0, 0.00872665)",-0.702932536602,0.0655493140221,-1.89717257023,"(0.000872665, 0.0, 0.0, 0.0, 0.000872665, 0.0, 0.0, 0.0, 0.000872665)",0.0224732617289,-1.20190168239,-0.709941442609,"(0.003, 0.0, 0.0, 0.0, 0.003, 0.0, 0.0, 0.0, 0.003)"
2022/01/11/19:03:39.348437,9626,1641924219,348060001,imu_iphone,-0.0460239702808,-0.0478476275344,-0.401925895124,0.913262269848,"(0.00872665, 0.0, 0.0, 0.0, 0.00872665, 0.0, 0.0, 0.0, 0.00872665)",-0.688158929348,0.0277209728956,-1.80321788788,"(0.000872665, 0.0, 0.0, 0.0, 0.000872665, 0.0, 0.0, 0.0, 0.000872665)",0.0900435030833,-1.43613025099,-0.692416752577,"(0.003, 0.0, 0.0, 0.0, 0.003, 0.0, 0.0, 0.0, 0.003)"
2022/01/11/19:03:39.378086,9627,1641924219,377673750,imu_iphone,-0.054058880619,-0.0531242313618,-0.426349677416,0.901377504732,"(0.00872665, 0.0, 0.0, 0.0, 0.00872665, 0.0, 0.0, 0.0, 0.00872665)",-0.666206359863,-0.00309634162113,-1.69559550285,"(0.000872665, 0.0, 0.0, 0.0, 0.000872665, 0.0, 0.0, 0.0, 0.000872665)",0.158982577622,-1.67641295359,-0.642007321715,"(0.003, 0.0, 0.0, 0.0, 0.003, 0.0, 0.0, 0.0, 0.003)"
2022/01/11/19:03:39.407977,9628,1641924219,407528707,imu_iphone,-0.0626704201537,-0.0573257749903,-0.449064121404,0.889453533821,"(0.00872665, 0.0, 0.0, 0.0, 0.00872665, 0.0, 0.0, 0.0, 0.00872665)",-0.633288562298,-0.0327259674668,-1.57914733887,"(0.000872665, 0.0, 0.0, 0.0, 0.000872665, 0.0, 0.0, 0.0, 0.000872665)",0.276937545352,-1.92004918054,-0.600929462314,"(0.003, 0.0, 0.0, 0.0, 0.003, 0.0, 0.0, 0.0, 0.003)"
2022/01/11/19:03:39.437659,9629,1641924219,437192734,imu_iphone,-0.0715324134508,-0.0604636310701,-0.470038928312,0.877662047154,"(0.00872665, 0.0, 0.0, 0.0, 0.00872665, 0.0, 0.0, 0.0, 0.00872665)",-0.592110872269,-0.0517281666398,-1.46185433865,"(0.000872665, 0.0, 0.0, 0.0, 0.000872665, 0.0, 0.0, 0.0, 0.000872665)",0.415351116657,-2.17311915904,-0.558916633129,"(0.003, 0.0, 0.0, 0.0, 0.003, 0.0, 0.0, 0.0, 0.003)"
2022/01/11/19:03:39.471393,9630,1641924219,470039758,imu_iphone,-0.0803073690681,-0.062512847659,-0.489310395266,0.866151376744,"(0.00872665, 0.0, 0.0, 0.0, 0.00872665, 0.0, 0.0, 0.0, 0.00872665)",-0.539337217808,-0.0583979748189,-1.34683418274,"(0.000872665, 0.0, 0.0, 0.0, 0.000872665, 0.0, 0.0, 0.0, 0.000872665)",0.555029842705,-2.41679573178,-0.492705101967,"(0.003, 0.0, 0.0, 0.0, 0.003, 0.0, 0.0, 0.0, 0.003)"
2022/01/11/19:03:39.497232,9631,1641924219,496738035,imu_iphone,-0.0886163832987,-0.0635717801614,-0.506902329051,0.855076484404,"(0.00872665, 0.0, 0.0, 0.0, 0.00872665, 0.0, 0.0, 0.0, 0.00872665)",-0.477773100138,-0.0598239079118,-1.23454868793,"(0.000872665, 0.0, 0.0, 0.0, 0.000872665, 0.0, 0.0, 0.0, 0.000872665)",0.73093989037,-2.65557438433,-0.444725189209,"(0.003, 0.0, 0.0, 0.0, 0.003, 0.0, 0.0, 0.0, 0.003)"
2022/01/11/19:03:39.527185,9632,1641924219,526719887,imu_iphone,-0.0961179027253,-0.0637321941921,-0.522774927985,0.844633607471,"(0.00872665, 0.0, 0.0, 0.0, 0.00872665, 0.0, 0.0, 0.0, 0.00872665)",-0.40496557951,-0.0462805517018,-1.11351847649,"(0.000872665, 0.0, 0.0, 0.0, 0.000872665, 0.0, 0.0, 0.0, 0.000872665)",0.908011341244,-2.83042864412,-0.353013365865,"(0.003, 0.0, 0.0, 0.0, 0.003, 0.0, 0.0, 0.0, 0.003)"
2022/01/11/19:03:39.556720,9633,1641924219,556262993,imu_iphone,-0.102472671296,-0.0632264940953,-0.536788731368,0.835080606863,"(0.00872665, 0.0, 0.0, 0.0, 0.00872665, 0.0, 0.0, 0.0, 0.00872665)",-0.326383590698,-0.0213833451271,-0.983986318111,"(0.000872665, 0.0, 0.0, 0.0, 0.000872665, 0.0, 0.0, 0.0, 0.000872665)",1.06574268781,-3.0078854996,-0.28430565834,"(0.003, 0.0, 0.0, 0.0, 0.003, 0.0, 0.0, 0.0, 0.003)"
2022/01/11/19:03:39.586514,9634,1641924219,586183827,imu_iphone,-0.107463454904,-0.0622080611472,-0.548899007637,0.826614567016,"(0.00872665, 0.0, 0.0, 0.0, 0.00872665, 0.0, 0.0, 0.0, 0.00872665)",-0.238262400031,0.0138155240566,-0.848753988743,"(0.000872665, 0.0, 0.0, 0.0, 0.000872665, 0.0, 0.0, 0.0, 0.000872665)",1.15629427738,-3.13096237242,-0.229457606077,"(0.003, 0.0, 0.0, 0.0, 0.003, 0.0, 0.0, 0.0, 0.003)"
2022/01/11/19:03:39.617710,9635,1641924219,616163529,imu_iphone,-0.110852504314,-0.0609396577705,-0.558998441552,0.819462520644,"(0.00872665, 0.0, 0.0, 0.0, 0.00872665, 0.0, 0.0, 0.0, 0.00872665)",-0.147644594312,0.0511457584798,-0.70644068718,"(0.000872665, 0.0, 0.0, 0.0, 0.000872665, 0.0, 0.0, 0.0, 0.000872665)",1.20926310763,-3.18021200806,-0.180435134768,"(0.003, 0.0, 0.0, 0.0, 0.003, 0.0, 0.0, 0.0, 0.003)"
2022/01/11/19:03:39.645881,9636,1641924219,645524955,imu_iphone,-0.11260633555,-0.0595355199754,-0.567074454162,0.8137578869,"(0.00872665, 0.0, 0.0, 0.0, 0.00872665, 0.0, 0.0, 0.0, 0.00872665)",-0.0581524707377,0.0906310975552,-0.561079919338,"(0.000872665, 0.0, 0.0, 0.0, 0.000872665, 0.0, 0.0, 0.0, 0.000872665)",1.18561806388,-3.21095345199,-0.157112930417,"(0.003, 0.0, 0.0, 0.0, 0.003, 0.0, 0.0, 0.0, 0.003)"
2022/01/11/19:03:39.676007,9637,1641924219,675529815,imu_iphone,-0.112711996207,-0.0581324820105,-0.573117697155,0.809600349341,"(0.00872665, 0.0, 0.0, 0.0, 0.00872665, 0.0, 0.0, 0.0, 0.00872665)",0.0281996913254,0.125251799822,-0.415899246931,"(0.000872665, 0.0, 0.0, 0.0, 0.000872665, 0.0, 0.0, 0.0, 0.000872665)",1.14207158312,-3.16017973959,-0.155837652683,"(0.003, 0.0, 0.0, 0.0, 0.003, 0.0, 0.0, 0.0, 0.003)"
2022/01/11/19:03:39.705846,9638,1641924219,705336252,imu_iphone,-0.1112868341,-0.0567778792569,-0.577134671086,0.807035987062,"(0.00872665, 0.0, 0.0, 0.0, 0.00872665, 0.0, 0.0, 0.0, 0.00872665)",0.115042246878,0.155975818634,-0.263239949942,"(0.000872665, 0.0, 0.0, 0.0, 0.000872665, 0.0, 0.0, 0.0, 0.000872665)",1.07309877746,-3.08843498826,-0.191127938032,"(0.003, 0.0, 0.0, 0.0, 0.003, 0.0, 0.0, 0.0, 0.003)"
2022/01/11/19:03:39.735686,9639,1641924219,735254776,imu_iphone,-0.108349589886,-0.0555147249382,-0.579131731376,0.806092376468,"(0.00872665, 0.0, 0.0, 0.0, 0.00872665, 0.0, 0.0, 0.0, 0.00872665)",0.195262461901,0.182348743081,-0.109049364924,"(0.000872665, 0.0, 0.0, 0.0, 0.000872665, 0.0, 0.0, 0.0, 0.000872665)",0.978932585344,-2.99183898568,-0.221941010356,"(0.003, 0.0, 0.0, 0.0, 0.003, 0.0, 0.0, 0.0, 0.003)"
2022/01/11/19:03:39.772674,9640,1641924219,772018068,imu_iphone,-0.103997767485,-0.0543289996005,-0.579079878504,0.806783315688,"(0.00872665, 0.0, 0.0, 0.0, 0.00872665, 0.0, 0.0, 0.0, 0.00872665)",0.272002518177,0.20358504355,0.0497887544334,"(0.000872665, 0.0, 0.0, 0.0, 0.000872665, 0.0, 0.0, 0.0, 0.000872665)",0.891364099011,-2.88325385213,-0.27535123229,"(0.003, 0.0, 0.0, 0.0, 0.003, 0.0, 0.0, 0.0, 0.003)"
2022/01/11/19:03:39.795230,9641,1641924219,794824816,imu_iphone,-0.0983645897058,-0.0531472149133,-0.577035626549,0.809030077768,"(0.00872665, 0.0, 0.0, 0.0, 0.00872665, 0.0, 0.0, 0.0, 0.00872665)",0.345137029886,0.223159536719,0.199030444026,"(0.000872665, 0.0, 0.0, 0.0, 0.000872665, 0.0, 0.0, 0.0, 0.000872665)",0.798439928591,-2.73802012503,-0.322044172883,"(0.003, 0.0, 0.0, 0.0, 0.003, 0.0, 0.0, 0.0, 0.003)"
2022/01/11/19:03:39.825870,9642,1641924219,824679971,imu_iphone,-0.0915998340321,-0.0518233788634,-0.573102295446,0.812697709338,"(0.00872665, 0.0, 0.0, 0.0, 0.00872665, 0.0, 0.0, 0.0, 0.00872665)",0.412785619497,0.241570189595,0.346336632967,"(0.000872665, 0.0, 0.0, 0.0, 0.000872665, 0.0, 0.0, 0.0, 0.000872665)",0.684756461531,-2.58498855114,-0.373140651584,"(0.003, 0.0, 0.0, 0.0, 0.003, 0.0, 0.0, 0.0, 0.003)"
2022/01/11/19:03:39.855029,9643,1641924219,854557941,imu_iphone,-0.0837600504719,-0.0502659831076,-0.567283962889,0.817708071586,"(0.00872665, 0.0, 0.0, 0.0, 0.00872665, 0.0, 0.0, 0.0, 0.00872665)",0.480241060257,0.250299870968,0.492516905069,"(0.000872665, 0.0, 0.0, 0.0, 0.000872665, 0.0, 0.0, 0.0, 0.000872665)",0.580007320717,-2.41618893698,-0.431963056326,"(0.003, 0.0, 0.0, 0.0, 0.003, 0.0, 0.0, 0.0, 0.003)"
2022/01/11/19:03:39.884619,9644,1641924219,884201377,imu_iphone,-0.0750272735556,-0.0482789203913,-0.559681197443,0.823891383192,"(0.00872665, 0.0, 0.0, 0.0, 0.00872665, 0.0, 0.0, 0.0, 0.00872665)",0.539354026318,0.258084028959,0.631787896156,"(0.000872665, 0.0, 0.0, 0.0, 0.000872665, 0.0, 0.0, 0.0, 0.000872665)",0.449882652685,-2.19226469725,-0.496266641021,"(0.003, 0.0, 0.0, 0.0, 0.003, 0.0, 0.0, 0.0, 0.003)"
2022/01/11/19:03:39.914257,9645,1641924219,913963603,imu_iphone,-0.0655797130722,-0.0456978591283,-0.550367837083,0.831087390597,"(0.00872665, 0.0, 0.0, 0.0, 0.00872665, 0.0, 0.0, 0.0, 0.00872665)",0.593979537487,0.259757399559,0.765829086304,"(0.000872665, 0.0, 0.0, 0.0, 0.000872665, 0.0, 0.0, 0.0, 0.000872665)",0.335333030261,-1.97286006287,-0.565586552024,"(0.003, 0.0, 0.0, 0.0, 0.003, 0.0, 0.0, 0.0, 0.003)"
2022/01/11/19:03:39.944529,9646,1641924219,944071431,imu_iphone,-0.0556539860449,-0.0423897331474,-0.539465741818,0.839096214844,"(0.00872665, 0.0, 0.0, 0.0, 0.00872665, 0.0, 0.0, 0.0, 0.00872665)",0.645424723625,0.255692631006,0.889351546764,"(0.000872665, 0.0, 0.0, 0.0, 0.000872665, 0.0, 0.0, 0.0, 0.000872665)",0.192740125023,-1.70320913494,-0.623228988647,"(0.003, 0.0, 0.0, 0.0, 0.003, 0.0, 0.0, 0.0, 0.003)"
2022/01/11/19:03:39.975835,9647,1641924219,975448896,imu_iphone,-0.0454532859646,-0.0382169873725,-0.527006468515,0.847783959989,"(0.00872665, 0.0, 0.0, 0.0, 0.00872665, 0.0, 0.0, 0.0, 0.00872665)",0.682915210724,0.243223294616,1.00986611843,"(0.000872665, 0.0, 0.0, 0.0, 0.000872665, 0.0, 0.0, 0.0, 0.000872665)",0.057320583947,-1.40489208609,-0.631421522498,"(0.003, 0.0, 0.0, 0.0, 0.003, 0.0, 0.0, 0.0, 0.003)"
2022/01/11/19:03:40.003871,9648,1641924220,3525871,imu_iphone,-0.035308548179,-0.0331078697282,-0.51306174851,0.856985891134,"(0.00872665, 0.0, 0.0, 0.0, 0.00872665, 0.0, 0.0, 0.0, 0.00872665)",0.714224636555,0.222646832466,1.12003409863,"(0.000872665, 0.0, 0.0, 0.0, 0.000872665, 0.0, 0.0, 0.0, 0.000872665)",-0.1118688385,-1.11044099696,-0.697261755466,"(0.003, 0.0, 0.0, 0.0, 0.003, 0.0, 0.0, 0.0, 0.003)"
2022/01/11/19:03:40.033503,9649,1641924220,33145542,imu_iphone,-0.0255215373112,-0.026998646685,-0.497712316577,0.866546117721,"(0.00872665, 0.0, 0.0, 0.0, 0.00872665, 0.0, 0.0, 0.0, 0.00872665)",0.73095780611,0.197011306882,1.22970759869,"(0.000872665, 0.0, 0.0, 0.0, 0.000872665, 0.0, 0.0, 0.0, 0.000872665)",-0.244674527999,-0.785032409281,-0.711607314348,"(0.003, 0.0, 0.0, 0.0, 0.003, 0.0, 0.0, 0.0, 0.003)"
2022/01/11/19:03:40.064020,9650,1641924220,63638619,imu_iphone,-0.0164751724703,-0.0199408948861,-0.480916864497,0.876384561049,"(0.00872665, 0.0, 0.0, 0.0, 0.00872665, 0.0, 0.0, 0.0, 0.00872665)",0.73877120018,0.159888669848,1.33835160732,"(0.000872665, 0.0, 0.0, 0.0, 0.000872665, 0.0, 0.0, 0.0, 0.000872665)",-0.359923093691,-0.457614864483,-0.718460251093,"(0.003, 0.0, 0.0, 0.0, 0.003, 0.0, 0.0, 0.0, 0.003)"
2022/01/11/19:03:40.093344,9651,1641924220,92910542,imu_iphone,-0.00841288367918,-0.0119901085136,-0.462602397665,0.886444855792,"(0.00872665, 0.0, 0.0, 0.0, 0.00872665, 0.0, 0.0, 0.0, 0.00872665)",0.738252699375,0.118472471833,1.44091427326,"(0.000872665, 0.0, 0.0, 0.0, 0.000872665, 0.0, 0.0, 0.0, 0.000872665)",-0.448847074248,-0.159451140594,-0.712685540915,"(0.003, 0.0, 0.0, 0.0, 0.003, 0.0, 0.0, 0.0, 0.003)"
2022/01/11/19:03:40.123337,9652,1641924220,122896947,imu_iphone,-0.00163214266387,-0.0032292543157,-0.442799080205,0.896613563692,"(0.00872665, 0.0, 0.0, 0.0, 0.00872665, 0.0, 0.0, 0.0, 0.00872665)",0.729429423809,0.0771786943078,1.53893780708,"(0.000872665, 0.0, 0.0, 0.0, 0.000872665, 0.0, 0.0, 0.0, 0.000872665)",-0.491819175705,0.134984270688,-0.710230295062,"(0.003, 0.0, 0.0, 0.0, 0.003, 0.0, 0.0, 0.0, 0.003)"
2022/01/11/19:03:40.152569,9653,1641924220,152264446,imu_iphone,0.00363735742455,0.00617928723961,-0.421526572477,0.906787701028,"(0.00872665, 0.0, 0.0, 0.0, 0.00872665, 0.0, 0.0, 0.0, 0.00872665)",0.712045907974,0.0333789587021,1.62666475773,"(0.000872665, 0.0, 0.0, 0.0, 0.000872665, 0.0, 0.0, 0.0, 0.000872665)",-0.494558230788,0.389250534698,-0.679846993089,"(0.003, 0.0, 0.0, 0.0, 0.003, 0.0, 0.0, 0.0, 0.003)"
2022/01/11/19:03:40.183435,9654,1641924220,183165530,imu_iphone,0.00721501837222,0.0160682480608,-0.398873454565,0.916836802358,"(0.00872665, 0.0, 0.0, 0.0, 0.00872665, 0.0, 0.0, 0.0, 0.00872665)",0.687956631184,-0.0133651224896,1.69587683678,"(0.000872665, 0.0, 0.0, 0.0, 0.000872665, 0.0, 0.0, 0.0, 0.000872665)",-0.471066932268,0.606562012061,-0.686721564531,"(0.003, 0.0, 0.0, 0.0, 0.003, 0.0, 0.0, 0.0, 0.003)"
2022/01/11/19:03:40.212568,9655,1641924220,210789124,imu_iphone,0.00905763482826,0.0262311649544,-0.375005174798,0.92660725451,"(0.00872665, 0.0, 0.0, 0.0, 0.00872665, 0.0, 0.0, 0.0, 0.00872665)",0.667522311211,-0.0528087578714,1.7518414259,"(0.000872665, 0.0, 0.0, 0.0, 0.000872665, 0.0, 0.0, 0.0, 0.000872665)",-0.409808942936,0.830179711506,-0.64574837029,"(0.003, 0.0, 0.0, 0.0, 0.003, 0.0, 0.0, 0.0, 0.003)"
2022/01/11/19:03:40.242359,9656,1641924220,241780440,imu_iphone,0.00910313637968,0.036462071233,-0.350122542888,0.93594970764,"(0.00872665, 0.0, 0.0, 0.0, 0.00872665, 0.0, 0.0, 0.0, 0.00872665)",0.641780257225,-0.0926665514708,1.78397703171,"(0.000872665, 0.0, 0.0, 0.0, 0.000872665, 0.0, 0.0, 0.0, 0.000872665)",-0.351986412071,1.01351301871,-0.615387872458,"(0.003, 0.0, 0.0, 0.0, 0.003, 0.0, 0.0, 0.0, 0.003)"
2022/01/11/19:03:40.271783,9657,1641924220,271462606,imu_iphone,0.00735393891584,0.0465144590116,-0.32451434744,0.944707765921,"(0.00872665, 0.0, 0.0, 0.0, 0.00872665, 0.0, 0.0, 0.0, 0.00872665)",0.613170921803,-0.130660057068,1.78953254223,"(0.000872665, 0.0, 0.0, 0.0, 0.000872665, 0.0, 0.0, 0.0, 0.000872665)",-0.272451689411,1.17676852226,-0.605142965913,"(0.003, 0.0, 0.0, 0.0, 0.003, 0.0, 0.0, 0.0, 0.003)"
2022/01/11/19:03:40.301661,9658,1641924220,301237064,imu_iphone,0.00393108734372,0.0561789507887,-0.298507876342,0.952744204812,"(0.00872665, 0.0, 0.0, 0.0, 0.00872665, 0.0, 0.0, 0.0, 0.00872665)",0.588243961334,-0.165674552321,1.77534461021,"(0.000872665, 0.0, 0.0, 0.0, 0.000872665, 0.0, 0.0, 0.0, 0.000872665)",-0.152360733803,1.35128905222,-0.58119627893,"(0.003, 0.0, 0.0, 0.0, 0.003, 0.0, 0.0, 0.0, 0.003)"
2022/01/11/19:03:40.331620,9659,1641924220,331062797,imu_iphone,-0.00101325193212,0.0652537973884,-0.272465542846,0.959949708687,"(0.00872665, 0.0, 0.0, 0.0, 0.00872665, 0.0, 0.0, 0.0, 0.00872665)",0.558947741985,-0.198626458645,1.73352861404,"(0.000872665, 0.0, 0.0, 0.0, 0.000872665, 0.0, 0.0, 0.0, 0.000872665)",-0.035345980078,1.51413298488,-0.539664675593,"(0.003, 0.0, 0.0, 0.0, 0.003, 0.0, 0.0, 0.0, 0.003)"
2022/01/11/19:03:40.361815,9660,1641924220,361020118,imu_iphone,-0.00725849498476,0.0735569160594,-0.246729348378,0.966261518948,"(0.00872665, 0.0, 0.0, 0.0, 0.00872665, 0.0, 0.0, 0.0, 0.00872665)",0.526335954666,-0.220599517226,1.672057271,"(0.000872665, 0.0, 0.0, 0.0, 0.000872665, 0.0, 0.0, 0.0, 0.000872665)",0.107635801546,1.67160931975,-0.52482151866,"(0.003, 0.0, 0.0, 0.0, 0.003, 0.0, 0.0, 0.0, 0.003)"
2022/01/11/19:03:40.391058,9661,1641924220,390665957,imu_iphone,-0.0145338894747,0.0809122738776,-0.221661264795,0.971652331692,"(0.00872665, 0.0, 0.0, 0.0, 0.00872665, 0.0, 0.0, 0.0, 0.00872665)",0.493870615959,-0.240316942334,1.59679090977,"(0.000872665, 0.0, 0.0, 0.0, 0.000872665, 0.0, 0.0, 0.0, 0.000872665)",0.269705014676,1.81608875602,-0.488851786852,"(0.003, 0.0, 0.0, 0.0, 0.003, 0.0, 0.0, 0.0, 0.003)"
2022/01/11/19:03:40.420758,9662,1641924220,420440682,imu_iphone,-0.0225950412242,0.0872249732818,-0.197502065447,0.976152755614,"(0.00872665, 0.0, 0.0, 0.0, 0.00872665, 0.0, 0.0, 0.0, 0.00872665)",0.449815958738,-0.249815359712,1.50937497616,"(0.000872665, 0.0, 0.0, 0.0, 0.000872665, 0.0, 0.0, 0.0, 0.000872665)",0.441123815998,1.97711771294,-0.443548144698,"(0.003, 0.0, 0.0, 0.0, 0.003, 0.0, 0.0, 0.0, 0.003)"
2022/01/11/19:03:40.450618,9663,1641924220,450217397,imu_iphone,-0.031121285784,0.0923961797967,-0.174510340807,0.979816591246,"(0.00872665, 0.0, 0.0, 0.0, 0.00872665, 0.0, 0.0, 0.0, 0.00872665)",0.40684825182,-0.255543887615,1.4131115675,"(0.000872665, 0.0, 0.0, 0.0, 0.000872665, 0.0, 0.0, 0.0, 0.000872665)",0.635161036178,2.12053090945,-0.4075895226,"(0.003, 0.0, 0.0, 0.0, 0.003, 0.0, 0.0, 0.0, 0.003)"
2022/01/11/19:03:40.480501,9664,1641924220,480074622,imu_iphone,-0.0398091464457,0.0963849144884,-0.152878222554,0.982727545756,"(0.00872665, 0.0, 0.0, 0.0, 0.00872665, 0.0, 0.0, 0.0, 0.00872665)",0.353031218052,-0.251838326454,1.31164073944,"(0.000872665, 0.0, 0.0, 0.0, 0.000872665, 0.0, 0.0, 0.0, 0.000872665)",0.834979033023,2.25707494318,-0.362304006815,"(0.003, 0.0, 0.0, 0.0, 0.003, 0.0, 0.0, 0.0, 0.003)"
2022/01/11/19:03:40.510179,9665,1641924220,509697873,imu_iphone,-0.0483609903192,0.0991598072869,-0.132765762774,0.98498822301,"(0.00872665, 0.0, 0.0, 0.0, 0.00872665, 0.0, 0.0, 0.0, 0.00872665)",0.297394573689,-0.23805527389,1.2102868557,"(0.000872665, 0.0, 0.0, 0.0, 0.000872665, 0.0, 0.0, 0.0, 0.000872665)",1.02509511039,2.36888276964,-0.31424691081,"(0.003, 0.0, 0.0, 0.0, 0.003, 0.0, 0.0, 0.0, 0.003)"
2022/01/11/19:03:40.555862,9666,1641924220,555062532,imu_iphone,-0.0565181469208,0.100726619274,-0.114312450461,0.986707915701,"(0.00872665, 0.0, 0.0, 0.0, 0.00872665, 0.0, 0.0, 0.0, 0.00872665)",0.235891059041,-0.217078372836,1.10469257832,"(0.000872665, 0.0, 0.0, 0.0, 0.000872665, 0.0, 0.0, 0.0, 0.000872665)",1.21737041831,2.45461552262,-0.2750559479,"(0.003, 0.0, 0.0, 0.0, 0.003, 0.0, 0.0, 0.0, 0.003)"
2022/01/11/19:03:40.573557,9667,1641924220,572916084,imu_iphone,-0.0639826960944,0.101127980212,-0.0976686418324,0.987998068126,"(0.00872665, 0.0, 0.0, 0.0, 0.00872665, 0.0, 0.0, 0.0, 0.00872665)",0.167995035648,-0.182311847806,0.992811799049,"(0.000872665, 0.0, 0.0, 0.0, 0.000872665, 0.0, 0.0, 0.0, 0.000872665)",1.41325418919,2.55172549546,-0.203282545209,"(0.003, 0.0, 0.0, 0.0, 0.003, 0.0, 0.0, 0.0, 0.003)"
2022/01/11/19:03:40.599469,9668,1641924220,599097481,imu_iphone,-0.0704818293969,0.100442845657,-0.083025040996,0.9889643012,"(0.00872665, 0.0, 0.0, 0.0, 0.00872665, 0.0, 0.0, 0.0, 0.00872665)",0.0953636467457,-0.141180738807,0.873066186905,"(0.000872665, 0.0, 0.0, 0.0, 0.000872665, 0.0, 0.0, 0.0, 0.000872665)",1.5681821613,2.5915543896,-0.190325700045,"(0.003, 0.0, 0.0, 0.0, 0.003, 0.0, 0.0, 0.0, 0.003)"
2022/01/11/19:03:40.629713,9669,1641924220,629273685,imu_iphone,-0.0757856015954,0.09878099661,-0.0705919619238,0.989704820748,"(0.00872665, 0.0, 0.0, 0.0, 0.00872665, 0.0, 0.0, 0.0, 0.00872665)",0.0235455688089,-0.0969365760684,0.746810376644,"(0.000872665, 0.0, 0.0, 0.0, 0.000872665, 0.0, 0.0, 0.0, 0.000872665)",1.68011906505,2.59948087513,-0.136031963825,"(0.003, 0.0, 0.0, 0.0, 0.003, 0.0, 0.0, 0.0, 0.003)"
2022/01/11/19:03:40.659410,9670,1641924220,659065271,imu_iphone,-0.0797494403552,0.0962719603462,-0.0605196794348,0.990307580914,"(0.00872665, 0.0, 0.0, 0.0, 0.00872665, 0.0, 0.0, 0.0, 0.00872665)",-0.0522917844355,-0.04031278193,0.606794536114,"(0.000872665, 0.0, 0.0, 0.0, 0.000872665, 0.0, 0.0, 0.0, 0.000872665)",1.75873371005,2.57609025836,-0.158284712434,"(0.003, 0.0, 0.0, 0.0, 0.003, 0.0, 0.0, 0.0, 0.003)"
2022/01/11/19:03:40.689267,9671,1641924220,688698127,imu_iphone,-0.0822025153611,0.0930939907248,-0.0530170650329,0.990840777408,"(0.00872665, 0.0, 0.0, 0.0, 0.00872665, 0.0, 0.0, 0.0, 0.00872665)",-0.125592619181,0.0129674477503,0.454799205065,"(0.000872665, 0.0, 0.0, 0.0, 0.000872665, 0.0, 0.0, 0.0, 0.000872665)",1.79202468619,2.49097380191,-0.139453169703,"(0.003, 0.0, 0.0, 0.0, 0.003, 0.0, 0.0, 0.0, 0.003)"
2022/01/11/19:03:40.718432,9672,1641924220,718196677,imu_iphone,-0.0831057670965,0.0894218037879,-0.0482534876348,0.991346949062,"(0.00872665, 0.0, 0.0, 0.0, 0.00872665, 0.0, 0.0, 0.0, 0.00872665)",-0.193847730756,0.071313418448,0.285013705492,"(0.000872665, 0.0, 0.0, 0.0, 0.000872665, 0.0, 0.0, 0.0, 0.000872665)",1.78041942492,2.39152567372,-0.176982938647,"(0.003, 0.0, 0.0, 0.0, 0.003, 0.0, 0.0, 0.0, 0.003)"
2022/01/11/19:03:40.748430,9673,1641924220,748082166,imu_iphone,-0.0824799413317,0.0853940120705,-0.0463547122163,0.991844827902,"(0.00872665, 0.0, 0.0, 0.0, 0.00872665, 0.0, 0.0, 0.0, 0.00872665)",-0.253821760416,0.121555767953,0.112623810768,"(0.000872665, 0.0, 0.0, 0.0, 0.000872665, 0.0, 0.0, 0.0, 0.000872665)",1.71939656675,2.26708859235,-0.205592780113,"(0.003, 0.0, 0.0, 0.0, 0.003, 0.0, 0.0, 0.0, 0.003)"
2022/01/11/19:03:40.781795,9674,1641924220,781499422,imu_iphone,-0.0804957979865,0.0811177665524,-0.0472911428548,0.99232246889,"(0.00872665, 0.0, 0.0, 0.0, 0.00872665, 0.0, 0.0, 0.0, 0.00872665)",-0.312717348337,0.170200183988,-0.0644729807973,"(0.000872665, 0.0, 0.0, 0.0, 0.000872665, 0.0, 0.0, 0.0, 0.000872665)",1.61163135901,2.13196894035,-0.275091031194,"(0.003, 0.0, 0.0, 0.0, 0.003, 0.0, 0.0, 0.0, 0.003)"
2022/01/11/19:03:40.808068,9675,1641924220,807613607,imu_iphone,-0.0772680153734,0.0765685948173,-0.0509906073814,0.992757201962,"(0.00872665, 0.0, 0.0, 0.0, 0.00872665, 0.0, 0.0, 0.0, 0.00872665)",-0.370398938656,0.206572070718,-0.228295236826,"(0.000872665, 0.0, 0.0, 0.0, 0.000872665, 0.0, 0.0, 0.0, 0.000872665)",1.48971106544,1.99698143542,-0.292040939927,"(0.003, 0.0, 0.0, 0.0, 0.003, 0.0, 0.0, 0.0, 0.003)"
2022/01/11/19:03:40.839175,9676,1641924220,837501008,imu_iphone,-0.0730585478569,0.0717344476617,-0.0573074436302,0.993092379645,"(0.00872665, 0.0, 0.0, 0.0, 0.00872665, 0.0, 0.0, 0.0, 0.00872665)",-0.420447587967,0.241501152515,-0.399488061666,"(0.000872665, 0.0, 0.0, 0.0, 0.000872665, 0.0, 0.0, 0.0, 0.000872665)",1.38710661024,1.79845896229,-0.367496919036,"(0.003, 0.0, 0.0, 0.0, 0.003, 0.0, 0.0, 0.0, 0.003)"
2022/01/11/19:03:40.867810,9677,1641924220,867290537,imu_iphone,-0.0680484341345,0.0666088180634,-0.0661165817826,0.993257908894,"(0.00872665, 0.0, 0.0, 0.0, 0.00872665, 0.0, 0.0, 0.0, 0.00872665)",-0.462252050638,0.266446352005,-0.558640599251,"(0.000872665, 0.0, 0.0, 0.0, 0.000872665, 0.0, 0.0, 0.0, 0.000872665)",1.26312473461,1.63639417112,-0.397194342613,"(0.003, 0.0, 0.0, 0.0, 0.003, 0.0, 0.0, 0.0, 0.003)"
2022/01/11/19:03:40.897823,9678,1641924220,897272147,imu_iphone,-0.0625009781858,0.0611550946311,-0.0772364331365,0.993170788698,"(0.00872665, 0.0, 0.0, 0.0, 0.00872665, 0.0, 0.0, 0.0, 0.00872665)",-0.498702168465,0.290409266949,-0.708147227764,"(0.000872665, 0.0, 0.0, 0.0, 0.000872665, 0.0, 0.0, 0.0, 0.000872665)",1.10459575474,1.42372684479,-0.468708128929,"(0.003, 0.0, 0.0, 0.0, 0.003, 0.0, 0.0, 0.0, 0.003)"
2022/01/11/19:03:40.927256,9679,1641924220,926816025,imu_iphone,-0.0565821805332,0.0553402056807,-0.0905239435916,0.992744344793,"(0.00872665, 0.0, 0.0, 0.0, 0.00872665, 0.0, 0.0, 0.0, 0.00872665)",-0.53168296814,0.306394934654,-0.854538798332,"(0.000872665, 0.0, 0.0, 0.0, 0.000872665, 0.0, 0.0, 0.0, 0.000872665)",0.971501797512,1.22813104928,-0.493829521537,"(0.003, 0.0, 0.0, 0.0, 0.003, 0.0, 0.0, 0.0, 0.003)"
2022/01/11/19:03:40.958795,9680,1641924220,957040585,imu_iphone,-0.0505467654078,0.0491368686592,-0.105792272564,0.991886378428,"(0.00872665, 0.0, 0.0, 0.0, 0.00872665, 0.0, 0.0, 0.0, 0.00872665)",-0.555189073086,0.310993850231,-0.991275548935,"(0.000872665, 0.0, 0.0, 0.0, 0.000872665, 0.0, 0.0, 0.0, 0.000872665)",0.818327259198,1.0393353463,-0.545368049741,"(0.003, 0.0, 0.0, 0.0, 0.003, 0.0, 0.0, 0.0, 0.003)"
2022/01/11/19:03:40.986930,9681,1641924220,986524928,imu_iphone,-0.0446464315741,0.04254614305,-0.122941854988,0.99049574565,"(0.00872665, 0.0, 0.0, 0.0, 0.00872665, 0.0, 0.0, 0.0, 0.00872665)",-0.574636459351,0.315008491278,-1.12748420238,"(0.000872665, 0.0, 0.0, 0.0, 0.000872665, 0.0, 0.0, 0.0, 0.000872665)",0.663102321625,0.815528708696,-0.545095569491,"(0.003, 0.0, 0.0, 0.0, 0.003, 0.0, 0.0, 0.0, 0.003)"
2022/01/11/19:03:41.017727,9682,1641924221,16542326,imu_iphone,-0.0390715067317,0.0356301097348,-0.141880020963,0.988470521712,"(0.00872665, 0.0, 0.0, 0.0, 0.00872665, 0.0, 0.0, 0.0, 0.00872665)",-0.59111058712,0.307096123695,-1.25588929653,"(0.000872665, 0.0, 0.0, 0.0, 0.000872665, 0.0, 0.0, 0.0, 0.000872665)",0.529258678257,0.623404551297,-0.573979645371,"(0.003, 0.0, 0.0, 0.0, 0.003, 0.0, 0.0, 0.0, 0.003)"
2022/01/11/19:03:41.046574,9683,1641924221,46014769,imu_iphone,-0.0340331681815,0.0283738425529,-0.162400636146,0.985729527762,"(0.00872665, 0.0, 0.0, 0.0, 0.00872665, 0.0, 0.0, 0.0, 0.00872665)",-0.597609639168,0.295597553253,-1.37214815617,"(0.000872665, 0.0, 0.0, 0.0, 0.000872665, 0.0, 0.0, 0.0, 0.000872665)",0.397439340949,0.433724310771,-0.568118981123,"(0.003, 0.0, 0.0, 0.0, 0.003, 0.0, 0.0, 0.0, 0.003)"
2022/01/11/19:03:41.077033,9684,1641924221,75928701,imu_iphone,-0.0297411415049,0.0208720443372,-0.184276784028,0.982202570316,"(0.00872665, 0.0, 0.0, 0.0, 0.00872665, 0.0, 0.0, 0.0, 0.00872665)",-0.606803536415,0.28393882513,-1.47435951233,"(0.000872665, 0.0, 0.0, 0.0, 0.000872665, 0.0, 0.0, 0.0, 0.000872665)",0.289645116404,0.246492134985,-0.592623492479,"(0.003, 0.0, 0.0, 0.0, 0.003, 0.0, 0.0, 0.0, 0.003)"
2022/01/11/19:03:41.106297,9685,1641924221,105707302,imu_iphone,-0.026316594099,0.0131120769615,-0.207280214166,0.977839671484,"(0.00872665, 0.0, 0.0, 0.0, 0.00872665, 0.0, 0.0, 0.0, 0.00872665)",-0.607129335403,0.265845507383,-1.56147396564,"(0.000872665, 0.0, 0.0, 0.0, 0.000872665, 0.0, 0.0, 0.0, 0.000872665)",0.182195694856,0.0578629131988,-0.588173176646,"(0.003, 0.0, 0.0, 0.0, 0.003, 0.0, 0.0, 0.0, 0.003)"
2022/01/11/19:03:41.135988,9686,1641924221,135495144,imu_iphone,-0.0239532537923,0.00527333383681,-0.231173929606,0.972603232492,"(0.00872665, 0.0, 0.0, 0.0, 0.00872665, 0.0, 0.0, 0.0, 0.00872665)",-0.607410132885,0.243540763855,-1.63018620014,"(0.000872665, 0.0, 0.0, 0.0, 0.000872665, 0.0, 0.0, 0.0, 0.000872665)",0.106932746954,-0.102019432141,-0.59633705914,"(0.003, 0.0, 0.0, 0.0, 0.003, 0.0, 0.0, 0.0, 0.003)"
2022/01/11/19:03:41.164697,9687,1641924221,164366537,imu_iphone,-0.0227045806734,-0.00261018488069,-0.255642062371,0.966501332073,"(0.00872665, 0.0, 0.0, 0.0, 0.00872665, 0.0, 0.0, 0.0, 0.00872665)",-0.604447305202,0.217722699046,-1.67632770538,"(0.000872665, 0.0, 0.0, 0.0, 0.000872665, 0.0, 0.0, 0.0, 0.000872665)",0.0343956978992,-0.283426017836,-0.570681815743,"(0.003, 0.0, 0.0, 0.0, 0.003, 0.0, 0.0, 0.0, 0.003)"
2022/01/11/19:03:41.201269,9688,1641924221,200726800,imu_iphone,-0.0226668400861,-0.0103911244885,-0.280355164535,0.959572415512,"(0.00872665, 0.0, 0.0, 0.0, 0.00872665, 0.0, 0.0, 0.0, 0.00872665)",-0.600188076496,0.191985175014,-1.70370447636,"(0.000872665, 0.0, 0.0, 0.0, 0.000872665, 0.0, 0.0, 0.0, 0.000872665)",-0.0260405018181,-0.463714095131,-0.586404978633,"(0.003, 0.0, 0.0, 0.0, 0.003, 0.0, 0.0, 0.0, 0.003)"
2022/01/11/19:03:41.225919,9689,1641924221,225134091,imu_iphone,-0.0238366040074,-0.017907401903,-0.30504507812,0.951871126561,"(0.00872665, 0.0, 0.0, 0.0, 0.00872665, 0.0, 0.0, 0.0, 0.00872665)",-0.594094634056,0.162325844169,-1.70749473572,"(0.000872665, 0.0, 0.0, 0.0, 0.000872665, 0.0, 0.0, 0.0, 0.000872665)",-0.0568892421573,-0.63441807434,-0.547487080693,"(0.003, 0.0, 0.0, 0.0, 0.003, 0.0, 0.0, 0.0, 0.003)"
2022/01/11/19:03:41.255307,9690,1641924221,254765897,imu_iphone,-0.0261856078434,-0.0250477132905,-0.329388626086,0.9434988389,"(0.00872665, 0.0, 0.0, 0.0, 0.00872665, 0.0, 0.0, 0.0, 0.00872665)",-0.58874553442,0.134825155139,-1.68796241283,"(0.000872665, 0.0, 0.0, 0.0, 0.000872665, 0.0, 0.0, 0.0, 0.000872665)",-0.0682770235464,-0.807284134626,-0.551169657111,"(0.003, 0.0, 0.0, 0.0, 0.003, 0.0, 0.0, 0.0, 0.003)"
2022/01/11/19:03:41.285094,9691,1641924221,284523184,imu_iphone,-0.0296175344637,-0.0317147980913,-0.353090059314,0.934582464659,"(0.00872665, 0.0, 0.0, 0.0, 0.00872665, 0.0, 0.0, 0.0, 0.00872665)",-0.575326025486,0.101568475366,-1.64855587482,"(0.000872665, 0.0, 0.0, 0.0, 0.000872665, 0.0, 0.0, 0.0, 0.000872665)",-0.0759960425645,-0.972930710837,-0.522535257339,"(0.003, 0.0, 0.0, 0.0, 0.003, 0.0, 0.0, 0.0, 0.003)"
2022/01/11/19:03:41.315194,9692,1641924221,314408474,imu_iphone,-0.0339822496936,-0.037768055779,-0.37587139342,0.925278053494,"(0.00872665, 0.0, 0.0, 0.0, 0.00872665, 0.0, 0.0, 0.0, 0.00872665)",-0.56058216095,0.0748477429152,-1.58649611473,"(0.000872665, 0.0, 0.0, 0.0, 0.000872665, 0.0, 0.0, 0.0, 0.000872665)",-0.0527489749342,-1.14685709059,-0.499410104156,"(0.003, 0.0, 0.0, 0.0, 0.003, 0.0, 0.0, 0.0, 0.003)"
2022/01/11/19:03:41.345149,9693,1641924221,344158702,imu_iphone,-0.0391265389175,-0.0431730748224,-0.397507602108,0.91574718445,"(0.00872665, 0.0, 0.0, 0.0, 0.00872665, 0.0, 0.0, 0.0, 0.00872665)",-0.543130159378,0.0487512499094,-1.50635695457,"(0.000872665, 0.0, 0.0, 0.0, 0.000872665, 0.0, 0.0, 0.0, 0.000872665)",-0.00809799168259,-1.3257316035,-0.459987591505,"(0.003, 0.0, 0.0, 0.0, 0.003, 0.0, 0.0, 0.0, 0.003)"
2022/01/11/19:03:41.374563,9694,1641924221,373844891,imu_iphone,-0.0448405488191,-0.0478586065893,-0.41780866271,0.906164885835,"(0.00872665, 0.0, 0.0, 0.0, 0.00872665, 0.0, 0.0, 0.0, 0.00872665)",-0.520472347736,0.0275449417531,-1.41735315323,"(0.000872665, 0.0, 0.0, 0.0, 0.000872665, 0.0, 0.0, 0.0, 0.000872665)",0.0517856096104,-1.5238174358,-0.446484616399,"(0.003, 0.0, 0.0, 0.0, 0.003, 0.0, 0.0, 0.0, 0.003)"
2022/01/11/19:03:41.403685,9695,1641924221,403419561,imu_iphone,-0.0508832001751,-0.0518127289002,-0.43667050544,0.896685681129,"(0.00872665, 0.0, 0.0, 0.0, 0.00872665, 0.0, 0.0, 0.0, 0.00872665)",-0.491048634052,0.0112982979044,-1.31546473503,"(0.000872665, 0.0, 0.0, 0.0, 0.000872665, 0.0, 0.0, 0.0, 0.000872665)",0.116578167714,-1.71331999406,-0.401199685335,"(0.003, 0.0, 0.0, 0.0, 0.003, 0.0, 0.0, 0.0, 0.003)"
2022/01/11/19:03:41.433674,9696,1641924221,433320878,imu_iphone,-0.0570201299907,-0.0550588418963,-0.45398060576,0.887478922735,"(0.00872665, 0.0, 0.0, 0.0, 0.00872665, 0.0, 0.0, 0.0, 0.00872665)",-0.456440597773,-2.43736431003e-05,-1.20594513416,"(0.000872665, 0.0, 0.0, 0.0, 0.000872665, 0.0, 0.0, 0.0, 0.000872665)",0.205007254556,-1.89170319468,-0.374445750117,"(0.003, 0.0, 0.0, 0.0, 0.003, 0.0, 0.0, 0.0, 0.003)"
2022/01/11/19:03:41.463326,9697,1641924221,463027415,imu_iphone,-0.0629901462355,-0.0576096233472,-0.469703951363,0.878687413617,"(0.00872665, 0.0, 0.0, 0.0, 0.00872665, 0.0, 0.0, 0.0, 0.00872665)",-0.407671123743,-0.00617176573724,-1.10058629513,"(0.000872665, 0.0, 0.0, 0.0, 0.000872665, 0.0, 0.0, 0.0, 0.000872665)",0.302508552298,-2.0887518771,-0.339205166101,"(0.003, 0.0, 0.0, 0.0, 0.003, 0.0, 0.0, 0.0, 0.003)"
2022/01/11/19:03:41.493842,9698,1641924221,493189601,imu_iphone,-0.0685970221277,-0.059457599652,-0.483867393572,0.870420351231,"(0.00872665, 0.0, 0.0, 0.0, 0.00872665, 0.0, 0.0, 0.0, 0.00872665)",-0.361328929663,-0.00429397076368,-0.9870210886,"(0.000872665, 0.0, 0.0, 0.0, 0.000872665, 0.0, 0.0, 0.0, 0.000872665)",0.392062972337,-2.25609465748,-0.30792957902,"(0.003, 0.0, 0.0, 0.0, 0.003, 0.0, 0.0, 0.0, 0.003)"
2022/01/11/19:03:41.523981,9699,1641924221,523133030,imu_iphone,-0.0735653568619,-0.0607206548366,-0.496464996791,0.862799888333,"(0.00872665, 0.0, 0.0, 0.0, 0.00872665, 0.0, 0.0, 0.0, 0.00872665)",-0.301565974951,0.00387246161699,-0.883369624615,"(0.000872665, 0.0, 0.0, 0.0, 0.000872665, 0.0, 0.0, 0.0, 0.000872665)",0.485016744286,-2.40653459921,-0.246178888679,"(0.003, 0.0, 0.0, 0.0, 0.003, 0.0, 0.0, 0.0, 0.003)"
2022/01/11/19:03:41.552759,9700,1641924221,552441548,imu_iphone,-0.07770675289,-0.0614266332816,-0.507478815103,0.855951915414,"(0.00872665, 0.0, 0.0, 0.0, 0.00872665, 0.0, 0.0, 0.0, 0.00872665)",-0.23714081943,0.0219977442175,-0.765812754631,"(0.000872665, 0.0, 0.0, 0.0, 0.000872665, 0.0, 0.0, 0.0, 0.000872665)",0.579467768893,-2.55418366492,-0.220195031762,"(0.003, 0.0, 0.0, 0.0, 0.003, 0.0, 0.0, 0.0, 0.003)"
2022/01/11/19:03:41.582940,9701,1641924221,582583476,imu_iphone,-0.080822077504,-0.0617016595313,-0.516838779923,0.850022571798,"(0.00872665, 0.0, 0.0, 0.0, 0.00872665, 0.0, 0.0, 0.0, 0.00872665)",-0.166941583157,0.0422204434872,-0.644437789917,"(0.000872665, 0.0, 0.0, 0.0, 0.000872665, 0.0, 0.0, 0.0, 0.000872665)",0.636006543562,-2.65676195383,-0.175613520741,"(0.003, 0.0, 0.0, 0.0, 0.003, 0.0, 0.0, 0.0, 0.003)"
2022/01/11/19:03:41.614049,9702,1641924221,613814961,imu_iphone,-0.0827674577897,-0.0615681512635,-0.524511139632,0.845131335996,"(0.00872665, 0.0, 0.0, 0.0, 0.00872665, 0.0, 0.0, 0.0, 0.00872665)",-0.0905110165477,0.0671466588974,-0.525135993958,"(0.000872665, 0.0, 0.0, 0.0, 0.000872665, 0.0, 0.0, 0.0, 0.000872665)",0.645857420862,-2.72766529083,-0.157285423279,"(0.003, 0.0, 0.0, 0.0, 0.003, 0.0, 0.0, 0.0, 0.003)"
2022/01/11/19:03:41.642564,9703,1641924221,642211671,imu_iphone,-0.0834451094813,-0.061126061951,-0.5304740167,0.841366647699,"(0.00872665, 0.0, 0.0, 0.0, 0.00872665, 0.0, 0.0, 0.0, 0.00872665)",-0.0166176706553,0.0932187214494,-0.400500714779,"(0.000872665, 0.0, 0.0, 0.0, 0.000872665, 0.0, 0.0, 0.0, 0.000872665)",0.625276610479,-2.73779500723,-0.147653304935,"(0.003, 0.0, 0.0, 0.0, 0.003, 0.0, 0.0, 0.0, 0.003)"
2022/01/11/19:03:41.672119,9704,1641924221,671811938,imu_iphone,-0.0828708324268,-0.0603955013143,-0.534712225796,0.838789392004,"(0.00872665, 0.0, 0.0, 0.0, 0.00872665, 0.0, 0.0, 0.0, 0.00872665)",0.0604068003595,0.111993394792,-0.277596801519,"(0.000872665, 0.0, 0.0, 0.0, 0.000872665, 0.0, 0.0, 0.0, 0.000872665)",0.580208391845,-2.72464315742,-0.150024935603,"(0.003, 0.0, 0.0, 0.0, 0.003, 0.0, 0.0, 0.0, 0.003)"
2022/01/11/19:03:41.702474,9705,1641924221,701946975,imu_iphone,-0.0810815829722,-0.059400054293,-0.537266372618,0.837402086997,"(0.00872665, 0.0, 0.0, 0.0, 0.00872665, 0.0, 0.0, 0.0, 0.00872665)",0.132162749767,0.134018912911,-0.145960837603,"(0.000872665, 0.0, 0.0, 0.0, 0.000872665, 0.0, 0.0, 0.0, 0.000872665)",0.516205134764,-2.65002362251,-0.161538687944,"(0.003, 0.0, 0.0, 0.0, 0.003, 0.0, 0.0, 0.0, 0.003)"
2022/01/11/19:03:41.731805,9706,1641924221,731300141,imu_iphone,-0.0781506243336,-0.0581280227253,-0.538112098926,0.837226959599,"(0.00872665, 0.0, 0.0, 0.0, 0.00872665, 0.0, 0.0, 0.0, 0.00872665)",0.206945151091,0.147870153189,-0.0188245177269,"(0.000872665, 0.0, 0.0, 0.0, 0.000872665, 0.0, 0.0, 0.0, 0.000872665)",0.436965568587,-2.56115471542,-0.194205912352,"(0.003, 0.0, 0.0, 0.0, 0.003, 0.0, 0.0, 0.0, 0.003)"
2022/01/11/19:03:41.761642,9707,1641924221,761334671,imu_iphone,-0.0741209526561,-0.056538931177,-0.537303214661,0.838221145733,"(0.00872665, 0.0, 0.0, 0.0, 0.00872665, 0.0, 0.0, 0.0, 0.00872665)",0.275677531958,0.161757364869,0.104110665619,"(0.000872665, 0.0, 0.0, 0.0, 0.000872665, 0.0, 0.0, 0.0, 0.000872665)",0.355614207387,-2.45920324802,-0.223947774768,"(0.003, 0.0, 0.0, 0.0, 0.003, 0.0, 0.0, 0.0, 0.003)"
2022/01/11/19:03:41.791258,9708,1641924221,790898204,imu_iphone,-0.0691263071413,-0.0545675692146,-0.534892642406,0.840317675139,"(0.00872665, 0.0, 0.0, 0.0, 0.00872665, 0.0, 0.0, 0.0, 0.00872665)",0.340025603771,0.169199883938,0.223700076342,"(0.000872665, 0.0, 0.0, 0.0, 0.000872665, 0.0, 0.0, 0.0, 0.000872665)",0.274231746309,-2.31457631573,-0.270128499269,"(0.003, 0.0, 0.0, 0.0, 0.003, 0.0, 0.0, 0.0, 0.003)"
2022/01/11/19:03:41.835226,9709,1641924221,834957505,imu_iphone,-0.0632911848581,-0.052144924593,-0.530927585584,0.843439998829,"(0.00872665, 0.0, 0.0, 0.0, 0.00872665, 0.0, 0.0, 0.0, 0.00872665)",0.40078997612,0.173174440861,0.346704185009,"(0.000872665, 0.0, 0.0, 0.0, 0.000872665, 0.0, 0.0, 0.0, 0.000872665)",0.189382142164,-2.14056537062,-0.305281375051,"(0.003, 0.0, 0.0, 0.0, 0.003, 0.0, 0.0, 0.0, 0.003)"
2022/01/11/19:03:41.851142,9710,1641924221,850676302,imu_iphone,-0.0567734760327,-0.0492342289022,-0.525448806964,0.847500037984,"(0.00872665, 0.0, 0.0, 0.0, 0.00872665, 0.0, 0.0, 0.0, 0.00872665)",0.455794095993,0.17206761241,0.461625158787,"(0.000872665, 0.0, 0.0, 0.0, 0.000872665, 0.0, 0.0, 0.0, 0.000872665)",0.109685031362,-1.96080178857,-0.354492126703,"(0.003, 0.0, 0.0, 0.0, 0.003, 0.0, 0.0, 0.0, 0.003)"
2022/01/11/19:03:41.880827,9711,1641924221,880465407,imu_iphone,-0.0497087492599,-0.0457561613741,-0.51850570311,0.852400873877,"(0.00872665, 0.0, 0.0, 0.0, 0.00872665, 0.0, 0.0, 0.0, 0.00872665)",0.502865493298,0.168611615896,0.57551908493,"(0.000872665, 0.0, 0.0, 0.0, 0.000872665, 0.0, 0.0, 0.0, 0.000872665)",0.0312985374033,-1.74498646751,-0.407795344591,"(0.003, 0.0, 0.0, 0.0, 0.003, 0.0, 0.0, 0.0, 0.003)"
2022/01/11/19:03:41.910412,9712,1641924221,910084975,imu_iphone,-0.0422655125553,-0.0416978675505,-0.510152199643,0.858032427994,"(0.00872665, 0.0, 0.0, 0.0, 0.00872665, 0.0, 0.0, 0.0, 0.00872665)",0.543891072273,0.162185624242,0.686026632786,"(0.000872665, 0.0, 0.0, 0.0, 0.000872665, 0.0, 0.0, 0.0, 0.000872665)",-0.0454829324037,-1.51150670797,-0.44577885747,"(0.003, 0.0, 0.0, 0.0, 0.003, 0.0, 0.0, 0.0, 0.003)"
2022/01/11/19:03:41.940301,9713,1641924221,939918301,imu_iphone,-0.0346368709764,-0.0370007219434,-0.500419535791,0.864298282969,"(0.00872665, 0.0, 0.0, 0.0, 0.00872665, 0.0, 0.0, 0.0, 0.00872665)",0.576294124126,0.156687200069,0.792095541954,"(0.000872665, 0.0, 0.0, 0.0, 0.000872665, 0.0, 0.0, 0.0, 0.000872665)",-0.147004464995,-1.25341937989,-0.472670786977,"(0.003, 0.0, 0.0, 0.0, 0.003, 0.0, 0.0, 0.0, 0.003)"
2022/01/11/19:03:41.970887,9714,1641924221,970456823,imu_iphone,-0.0270645216445,-0.0316560958438,-0.489324148121,0.871106928758,"(0.00872665, 0.0, 0.0, 0.0, 0.00872665, 0.0, 0.0, 0.0, 0.00872665)",0.600429356098,0.139471843839,0.896917939186,"(0.000872665, 0.0, 0.0, 0.0, 0.000872665, 0.0, 0.0, 0.0, 0.000872665)",-0.223508338239,-0.972265955508,-0.477260851264,"(0.003, 0.0, 0.0, 0.0, 0.003, 0.0, 0.0, 0.0, 0.003)"
2022/01/11/19:03:41.999689,9715,1641924221,999374874,imu_iphone,-0.0197529722655,-0.0256820455824,-0.476838689218,0.878393486477,"(0.00872665, 0.0, 0.0, 0.0, 0.00872665, 0.0, 0.0, 0.0, 0.00872665)",0.613326311111,0.119144357741,0.997420668602,"(0.000872665, 0.0, 0.0, 0.0, 0.000872665, 0.0, 0.0, 0.0, 0.000872665)",-0.322866656855,-0.706742211655,-0.516963445544,"(0.003, 0.0, 0.0, 0.0, 0.003, 0.0, 0.0, 0.0, 0.003)"
2022/01/11/19:03:42.029500,9716,1641924222,29227715,imu_iphone,-0.0129629098204,-0.0190832036756,-0.463012198259,0.886051634257,"(0.00872665, 0.0, 0.0, 0.0, 0.00872665, 0.0, 0.0, 0.0, 0.00872665)",0.618506550789,0.0923977047205,1.1016112566,"(0.000872665, 0.0, 0.0, 0.0, 0.000872665, 0.0, 0.0, 0.0, 0.000872665)",-0.399018454626,-0.428551498353,-0.495134035349,"(0.003, 0.0, 0.0, 0.0, 0.003, 0.0, 0.0, 0.0, 0.003)"
2022/01/11/19:03:42.059547,9717,1641924222,59124349,imu_iphone,-0.00691868741808,-0.0119321213876,-0.447741008037,0.894056903091,"(0.00872665, 0.0, 0.0, 0.0, 0.00872665, 0.0, 0.0, 0.0, 0.00872665)",0.61317294836,0.0632528066635,1.20088613033,"(0.000872665, 0.0, 0.0, 0.0, 0.000872665, 0.0, 0.0, 0.0, 0.000872665)",-0.448389931619,-0.167248585392,-0.504890114665,"(0.003, 0.0, 0.0, 0.0, 0.003, 0.0, 0.0, 0.0, 0.003)"
2022/01/11/19:03:42.090068,9718,1641924222,89155647,imu_iphone,-0.00183514916715,-0.00433740576223,-0.431059755367,0.902311091831,"(0.00872665, 0.0, 0.0, 0.0, 0.00872665, 0.0, 0.0, 0.0, 0.00872665)",0.605689764023,0.0295556746423,1.29312169552,"(0.000872665, 0.0, 0.0, 0.0, 0.000872665, 0.0, 0.0, 0.0, 0.000872665)",-0.477061899751,0.0575310563017,-0.500095982552,"(0.003, 0.0, 0.0, 0.0, 0.003, 0.0, 0.0, 0.0, 0.003)"
2022/01/11/19:03:42.118965,9719,1641924222,118650362,imu_iphone,0.00216488754375,0.00365344438801,-0.413060422239,0.910693720845,"(0.00872665, 0.0, 0.0, 0.0, 0.00872665, 0.0, 0.0, 0.0, 0.00872665)",0.589584052563,0.000599519349635,1.3725553751,"(0.000872665, 0.0, 0.0, 0.0, 0.000872665, 0.0, 0.0, 0.0, 0.000872665)",-0.467869711295,0.282059340812,-0.503307858109,"(0.003, 0.0, 0.0, 0.0, 0.003, 0.0, 0.0, 0.0, 0.003)"
2022/01/11/19:03:42.148874,9720,1641924222,148480544,imu_iphone,0.00494612655159,0.0118937025372,-0.393837914541,0.919089643475,"(0.00872665, 0.0, 0.0, 0.0, 0.00872665, 0.0, 0.0, 0.0, 0.00872665)",0.570595860481,-0.0328138545156,1.44073271751,"(0.000872665, 0.0, 0.0, 0.0, 0.000872665, 0.0, 0.0, 0.0, 0.000872665)",-0.443958911598,0.46869351089,-0.487049090266,"(0.003, 0.0, 0.0, 0.0, 0.003, 0.0, 0.0, 0.0, 0.003)"
2022/01/11/19:03:42.181502,9721,1641924222,181115741,imu_iphone,0.0064687552426,0.0202711290742,-0.373582588508,0.927352837972,"(0.00872665, 0.0, 0.0, 0.0, 0.00872665, 0.0, 0.0, 0.0, 0.00872665)",0.553049385548,-0.0628899857402,1.48718798161,"(0.000872665, 0.0, 0.0, 0.0, 0.000872665, 0.0, 0.0, 0.0, 0.000872665)",-0.398573042974,0.630744122565,-0.472019991875,"(0.003, 0.0, 0.0, 0.0, 0.003, 0.0, 0.0, 0.0, 0.003)"
2022/01/11/19:03:42.207491,9722,1641924222,207240508,imu_iphone,0.00668078608508,0.0286552252964,-0.352468476552,0.935361009556,"(0.00872665, 0.0, 0.0, 0.0, 0.00872665, 0.0, 0.0, 0.0, 0.00872665)",0.531159818172,-0.0906720459461,1.52162957191,"(0.000872665, 0.0, 0.0, 0.0, 0.000872665, 0.0, 0.0, 0.0, 0.000872665)",-0.350455574468,0.796308618486,-0.449136913419,"(0.003, 0.0, 0.0, 0.0, 0.003, 0.0, 0.0, 0.0, 0.003)"
2022/01/11/19:03:42.238049,9723,1641924222,237751309,imu_iphone,0.00565288337076,0.0369149447174,-0.330777492922,0.942969555151,"(0.00872665, 0.0, 0.0, 0.0, 0.00872665, 0.0, 0.0, 0.0, 0.00872665)",0.512654185295,-0.11788893491,1.5241663456,"(0.000872665, 0.0, 0.0, 0.0, 0.000872665, 0.0, 0.0, 0.0, 0.000872665)",-0.286535585392,0.930114328042,-0.440803461671,"(0.003, 0.0, 0.0, 0.0, 0.003, 0.0, 0.0, 0.0, 0.003)"
2022/01/11/19:03:42.267792,9724,1641924222,267543841,imu_iphone,0.00343307770804,0.044938483041,-0.308854798283,0.950040767702,"(0.00872665, 0.0, 0.0, 0.0, 0.00872665, 0.0, 0.0, 0.0, 0.00872665)",0.489592343569,-0.143136948347,1.51051712036,"(0.000872665, 0.0, 0.0, 0.0, 0.000872665, 0.0, 0.0, 0.0, 0.000872665)",-0.208859619498,1.0623238939,-0.43742610991,"(0.003, 0.0, 0.0, 0.0, 0.003, 0.0, 0.0, 0.0, 0.003)"
2022/01/11/19:03:42.297567,9725,1641924222,297305305,imu_iphone,0.000148418793562,0.0525588671518,-0.286966981967,0.956497514224,"(0.00872665, 0.0, 0.0, 0.0, 0.00872665, 0.0, 0.0, 0.0, 0.00872665)",0.466553896666,-0.164006114006,1.47729408741,"(0.000872665, 0.0, 0.0, 0.0, 0.000872665, 0.0, 0.0, 0.0, 0.000872665)",-0.116262564249,1.21081561647,-0.408362524509,"(0.003, 0.0, 0.0, 0.0, 0.003, 0.0, 0.0, 0.0, 0.003)"
2022/01/11/19:03:42.328348,9726,1641924222,327502523,imu_iphone,-0.00411563690181,0.0596707208027,-0.265399942908,0.96228131901,"(0.00872665, 0.0, 0.0, 0.0, 0.00872665, 0.0, 0.0, 0.0, 0.00872665)",0.443900048733,-0.181737154722,1.42628097534,"(0.000872665, 0.0, 0.0, 0.0, 0.000872665, 0.0, 0.0, 0.0, 0.000872665)",-0.0254724813625,1.35048988402,-0.380795241594,"(0.003, 0.0, 0.0, 0.0, 0.003, 0.0, 0.0, 0.0, 0.003)"
2022/01/11/19:03:42.357969,9727,1641924222,357146685,imu_iphone,-0.00915603269258,0.0661781104543,-0.244452298546,0.967357068769,"(0.00872665, 0.0, 0.0, 0.0, 0.00872665, 0.0, 0.0, 0.0, 0.00872665)",0.417283117771,-0.198325440288,1.357640028,"(0.000872665, 0.0, 0.0, 0.0, 0.000872665, 0.0, 0.0, 0.0, 0.000872665)",0.105579189621,1.47452102244,-0.374075621367,"(0.003, 0.0, 0.0, 0.0, 0.003, 0.0, 0.0, 0.0, 0.003)"
2022/01/11/19:03:42.387056,9728,1641924222,386666291,imu_iphone,-0.0147750359591,0.0719783101746,-0.224344016868,0.971735860855,"(0.00872665, 0.0, 0.0, 0.0, 0.00872665, 0.0, 0.0, 0.0, 0.00872665)",0.383879393339,-0.205665156245,1.28222095966,"(0.000872665, 0.0, 0.0, 0.0, 0.000872665, 0.0, 0.0, 0.0, 0.000872665)",0.23267503649,1.62445561856,-0.348876460791,"(0.003, 0.0, 0.0, 0.0, 0.003, 0.0, 0.0, 0.0, 0.003)"
2022/01/11/19:03:42.416686,9729,1641924222,416368338,imu_iphone,-0.0208169900185,0.0769855934969,-0.205236484346,0.975457767827,"(0.00872665, 0.0, 0.0, 0.0, 0.00872665, 0.0, 0.0, 0.0, 0.00872665)",0.349886447191,-0.210010692477,1.1978187561,"(0.000872665, 0.0, 0.0, 0.0, 0.000872665, 0.0, 0.0, 0.0, 0.000872665)",0.372953686863,1.76513173342,-0.321177030802,"(0.003, 0.0, 0.0, 0.0, 0.003, 0.0, 0.0, 0.0, 0.003)"
2022/01/11/19:03:42.446611,9730,1641924222,446287992,imu_iphone,-0.0270707883829,0.081120422473,-0.187279681951,0.978577012913,"(0.00872665, 0.0, 0.0, 0.0, 0.00872665, 0.0, 0.0, 0.0, 0.00872665)",0.308052212,-0.207860901952,1.11441779137,"(0.000872665, 0.0, 0.0, 0.0, 0.000872665, 0.0, 0.0, 0.0, 0.000872665)",0.527125687078,1.88612626657,-0.288835496306,"(0.003, 0.0, 0.0, 0.0, 0.003, 0.0, 0.0, 0.0, 0.003)"
2022/01/11/19:03:42.476474,9731,1641924222,476152772,imu_iphone,-0.033314384008,0.0843622740468,-0.170592982266,0.981158087638,"(0.00872665, 0.0, 0.0, 0.0, 0.00872665, 0.0, 0.0, 0.0, 0.00872665)",0.25883808732,-0.199448764324,1.02177381516,"(0.000872665, 0.0, 0.0, 0.0, 0.000872665, 0.0, 0.0, 0.0, 0.000872665)",0.675192317069,2.00362518802,-0.24837978065,"(0.003, 0.0, 0.0, 0.0, 0.003, 0.0, 0.0, 0.0, 0.003)"
2022/01/11/19:03:42.506291,9732,1641924222,505914379,imu_iphone,-0.0393839558904,0.0866336860199,-0.155259820946,0.983279154902,"(0.00872665, 0.0, 0.0, 0.0, 0.00872665, 0.0, 0.0, 0.0, 0.00872665)",0.20521530509,-0.186002895236,0.933089435101,"(0.000872665, 0.0, 0.0, 0.0, 0.000872665, 0.0, 0.0, 0.0, 0.000872665)",0.818771866858,2.10775328144,-0.220349398255,"(0.003, 0.0, 0.0, 0.0, 0.003, 0.0, 0.0, 0.0, 0.003)"
2022/01/11/19:03:42.536088,9733,1641924222,535756031,imu_iphone,-0.0450578469824,0.087928985665,-0.141387619805,0.985011586161,"(0.00872665, 0.0, 0.0, 0.0, 0.00872665, 0.0, 0.0, 0.0, 0.00872665)",0.148522943258,-0.161333978176,0.839920163155,"(0.000872665, 0.0, 0.0, 0.0, 0.000872665, 0.0, 0.0, 0.0, 0.000872665)",0.979981648922,2.1910350278,-0.184339905381,"(0.003, 0.0, 0.0, 0.0, 0.003, 0.0, 0.0, 0.0, 0.003)"
2022/01/11/19:03:42.572752,9734,1641924222,572338703,imu_iphone,-0.0501409234381,0.0882510828062,-0.12908739309,0.986424897864,"(0.00872665, 0.0, 0.0, 0.0, 0.00872665, 0.0, 0.0, 0.0, 0.00872665)",0.0873632133007,-0.130907356739,0.740967512131,"(0.000872665, 0.0, 0.0, 0.0, 0.000872665, 0.0, 0.0, 0.0, 0.000872665)",1.11623434514,2.24186531201,-0.152286053896,"(0.003, 0.0, 0.0, 0.0, 0.003, 0.0, 0.0, 0.0, 0.003)"
2022/01/11/19:03:42.595604,9735,1641924222,595200087,imu_iphone,-0.0544257712566,0.087655679592,-0.118559081759,0.987571800626,"(0.00872665, 0.0, 0.0, 0.0, 0.00872665, 0.0, 0.0, 0.0, 0.00872665)",0.0230457764119,-0.0926297158003,0.632920444012,"(0.000872665, 0.0, 0.0, 0.0, 0.000872665, 0.0, 0.0, 0.0, 0.000872665)",1.21984086692,2.2529127489,-0.143304145932,"(0.003, 0.0, 0.0, 0.0, 0.003, 0.0, 0.0, 0.0, 0.003)"
2022/01/11/19:03:42.625290,9736,1641924222,624972442,imu_iphone,-0.0577501168086,0.0861969166711,-0.109965095967,0.98850528235,"(0.00872665, 0.0, 0.0, 0.0, 0.00872665, 0.0, 0.0, 0.0, 0.00872665)",-0.0402382388711,-0.0514154396951,0.5141518116,"(0.000872665, 0.0, 0.0, 0.0, 0.000872665, 0.0, 0.0, 0.0, 0.000872665)",1.27247355536,2.23960726351,-0.123341751695,"(0.003, 0.0, 0.0, 0.0, 0.003, 0.0, 0.0, 0.0, 0.003)"
2022/01/11/19:03:42.655157,9737,1641924222,654826487,imu_iphone,-0.0600111208955,0.0840104940212,-0.103495241653,0.989257113807,"(0.00872665, 0.0, 0.0, 0.0, 0.00872665, 0.0, 0.0, 0.0, 0.00872665)",-0.102758713067,-0.0123998373747,0.37948012352,"(0.000872665, 0.0, 0.0, 0.0, 0.000872665, 0.0, 0.0, 0.0, 0.000872665)",1.30781588092,2.18636222541,-0.129197738171,"(0.003, 0.0, 0.0, 0.0, 0.003, 0.0, 0.0, 0.0, 0.003)"
2022/01/11/19:03:42.684964,9738,1641924222,684626750,imu_iphone,-0.0611665335009,0.0812193972655,-0.0993438838413,0.989844865335,"(0.00872665, 0.0, 0.0, 0.0, 0.00872665, 0.0, 0.0, 0.0, 0.00872665)",-0.163014933467,0.0324843525887,0.237205207348,"(0.000872665, 0.0, 0.0, 0.0, 0.000872665, 0.0, 0.0, 0.0, 0.000872665)",1.31013181686,2.08696321383,-0.151935805678,"(0.003, 0.0, 0.0, 0.0, 0.003, 0.0, 0.0, 0.0, 0.003)"
2022/01/11/19:03:42.714790,9739,1641924222,714443449,imu_iphone,-0.0611674763385,0.0779453146264,-0.0976227255798,0.99027918852,"(0.00872665, 0.0, 0.0, 0.0, 0.00872665, 0.0, 0.0, 0.0, 0.00872665)",-0.215387955308,0.0718761384487,0.0850606113672,"(0.000872665, 0.0, 0.0, 0.0, 0.000872665, 0.0, 0.0, 0.0, 0.000872665)",1.26079257265,1.97326585963,-0.181830280423,"(0.003, 0.0, 0.0, 0.0, 0.003, 0.0, 0.0, 0.0, 0.003)"
2022/01/11/19:03:42.745014,9740,1641924222,744385916,imu_iphone,-0.0601141391557,0.0742970194329,-0.0983872924654,0.990548425802,"(0.00872665, 0.0, 0.0, 0.0, 0.00872665, 0.0, 0.0, 0.0, 0.00872665)",-0.264991104603,0.109901621938,-0.0699384212494,"(0.000872665, 0.0, 0.0, 0.0, 0.000872665, 0.0, 0.0, 0.0, 0.000872665)",1.20363603964,1.85359484375,-0.198214763403,"(0.003, 0.0, 0.0, 0.0, 0.003, 0.0, 0.0, 0.0, 0.003)"
2022/01/11/19:03:42.774327,9741,1641924222,773969048,imu_iphone,-0.0581527395433,0.0702881330101,-0.101528808005,0.99064107445,"(0.00872665, 0.0, 0.0, 0.0, 0.00872665, 0.0, 0.0, 0.0, 0.00872665)",-0.309272319078,0.139061927795,-0.213459193707,"(0.000872665, 0.0, 0.0, 0.0, 0.000872665, 0.0, 0.0, 0.0, 0.000872665)",1.11147208035,1.72437093928,-0.242166529298,"(0.003, 0.0, 0.0, 0.0, 0.003, 0.0, 0.0, 0.0, 0.003)"
2022/01/11/19:03:42.804198,9742,1641924222,803834646,imu_iphone,-0.0554805261152,0.0659294676228,-0.106782951267,0.990541578047,"(0.00872665, 0.0, 0.0, 0.0, 0.00872665, 0.0, 0.0, 0.0, 0.00872665)",-0.350949943066,0.164766609669,-0.346954733133,"(0.000872665, 0.0, 0.0, 0.0, 0.000872665, 0.0, 0.0, 0.0, 0.000872665)",1.02580554709,1.59676744446,-0.28054355979,"(0.003, 0.0, 0.0, 0.0, 0.003, 0.0, 0.0, 0.0, 0.003)"
2022/01/11/19:03:42.835360,9743,1641924222,834969161,imu_iphone,-0.0521938882113,0.0612054297604,-0.114090065981,0.990208639755,"(0.00872665, 0.0, 0.0, 0.0, 0.00872665, 0.0, 0.0, 0.0, 0.00872665)",-0.38916477561,0.186184227467,-0.47602468729,"(0.000872665, 0.0, 0.0, 0.0, 0.000872665, 0.0, 0.0, 0.0, 0.000872665)",0.945349760056,1.42702175081,-0.311513337493,"(0.003, 0.0, 0.0, 0.0, 0.003, 0.0, 0.0, 0.0, 0.003)"
2022/01/11/19:03:42.863612,9744,1641924222,863268375,imu_iphone,-0.0485021333037,0.0561392451787,-0.123223829068,0.989601847293,"(0.00872665, 0.0, 0.0, 0.0, 0.00872665, 0.0, 0.0, 0.0, 0.00872665)",-0.421738952398,0.206286519766,-0.593970119953,"(0.000872665, 0.0, 0.0, 0.0, 0.000872665, 0.0, 0.0, 0.0, 0.000872665)",0.852908496559,1.27241449848,-0.339408649206,"(0.003, 0.0, 0.0, 0.0, 0.003, 0.0, 0.0, 0.0, 0.003)"
2022/01/11/19:03:42.893536,9745,1641924222,893289437,imu_iphone,-0.0445357801565,0.0507242170784,-0.134035997448,0.988674855286,"(0.00872665, 0.0, 0.0, 0.0, 0.00872665, 0.0, 0.0, 0.0, 0.00872665)",-0.446228593588,0.21964764595,-0.705083966255,"(0.000872665, 0.0, 0.0, 0.0, 0.000872665, 0.0, 0.0, 0.0, 0.000872665)",0.742369735166,1.08252024986,-0.35883543849,"(0.003, 0.0, 0.0, 0.0, 0.003, 0.0, 0.0, 0.0, 0.003)"
2022/01/11/19:03:42.925964,9746,1641924222,925679836,imu_iphone,-0.0405092030193,0.044993068995,-0.146341317226,0.987379788676,"(0.00872665, 0.0, 0.0, 0.0, 0.00872665, 0.0, 0.0, 0.0, 0.00872665)",-0.467920303345,0.227832600474,-0.810612499714,"(0.000872665, 0.0, 0.0, 0.0, 0.000872665, 0.0, 0.0, 0.0, 0.000872665)",0.64435512498,0.917275815904,-0.407366743684,"(0.003, 0.0, 0.0, 0.0, 0.003, 0.0, 0.0, 0.0, 0.003)"
2022/01/11/19:03:42.953212,9747,1641924222,952835194,imu_iphone,-0.0365038759797,0.0389496719932,-0.160009700407,0.985670982562,"(0.00872665, 0.0, 0.0, 0.0, 0.00872665, 0.0, 0.0, 0.0, 0.00872665)",-0.485052794218,0.234097346663,-0.901033639908,"(0.000872665, 0.0, 0.0, 0.0, 0.000872665, 0.0, 0.0, 0.0, 0.000872665)",0.539322028756,0.74552028805,-0.41471318543,"(0.003, 0.0, 0.0, 0.0, 0.003, 0.0, 0.0, 0.0, 0.003)"
2022/01/11/19:03:42.982980,9748,1641924222,982560786,imu_iphone,-0.0327205226941,0.0326361302614,-0.174920640757,0.98349734104,"(0.00872665, 0.0, 0.0, 0.0, 0.00872665, 0.0, 0.0, 0.0, 0.00872665)",-0.49840041995,0.236049458385,-0.995016276836,"(0.000872665, 0.0, 0.0, 0.0, 0.000872665, 0.0, 0.0, 0.0, 0.000872665)",0.416766435206,0.558323944733,-0.417921552658,"(0.003, 0.0, 0.0, 0.0, 0.003, 0.0, 0.0, 0.0, 0.003)"
2022/01/11/19:03:43.012719,9749,1641924223,12325682,imu_iphone,-0.0292275095488,0.0260977653173,-0.190987049481,0.980810178506,"(0.00872665, 0.0, 0.0, 0.0, 0.00872665, 0.0, 0.0, 0.0, 0.00872665)",-0.505479037762,0.232914730906,-1.07828652859,"(0.000872665, 0.0, 0.0, 0.0, 0.000872665, 0.0, 0.0, 0.0, 0.000872665)",0.322982943356,0.402870746478,-0.435629845262,"(0.003, 0.0, 0.0, 0.0, 0.003, 0.0, 0.0, 0.0, 0.003)"
2022/01/11/19:03:43.042933,9750,1641924223,42521986,imu_iphone,-0.0262106174482,0.0194374400183,-0.208023622536,0.977579337919,"(0.00872665, 0.0, 0.0, 0.0, 0.00872665, 0.0, 0.0, 0.0, 0.00872665)",-0.509262025356,0.230033859611,-1.15463447571,"(0.000872665, 0.0, 0.0, 0.0, 0.000872665, 0.0, 0.0, 0.0, 0.000872665)",0.238369128183,0.224222082272,-0.429841101766,"(0.003, 0.0, 0.0, 0.0, 0.003, 0.0, 0.0, 0.0, 0.003)"
2022/01/11/19:03:43.072373,9751,1641924223,72010111,imu_iphone,-0.02371954375,0.0126368951582,-0.225941206592,0.973770128567,"(0.00872665, 0.0, 0.0, 0.0, 0.00872665, 0.0, 0.0, 0.0, 0.00872665)",-0.510905325413,0.217661172152,-1.21864163876,"(0.000872665, 0.0, 0.0, 0.0, 0.000872665, 0.0, 0.0, 0.0, 0.000872665)",0.141403983571,0.0620389946178,-0.444077317715,"(0.003, 0.0, 0.0, 0.0, 0.003, 0.0, 0.0, 0.0, 0.003)"
2022/01/11/19:03:43.115392,9752,1641924223,114997307,imu_iphone,-0.0218962650331,0.00583025282416,-0.244562879465,0.969368639743,"(0.00872665, 0.0, 0.0, 0.0, 0.00872665, 0.0, 0.0, 0.0, 0.00872665)",-0.505609989166,0.206486701965,-1.27778697014,"(0.000872665, 0.0, 0.0, 0.0, 0.000872665, 0.0, 0.0, 0.0, 0.000872665)",0.0547805900127,-0.104799710093,-0.428004491329,"(0.003, 0.0, 0.0, 0.0, 0.003, 0.0, 0.0, 0.0, 0.003)"
2022/01/11/19:03:43.131980,9753,1641924223,131586629,imu_iphone,-0.0207780748013,-0.000941877787791,-0.26375143629,0.964366405641,"(0.00872665, 0.0, 0.0, 0.0, 0.00872665, 0.0, 0.0, 0.0, 0.00872665)",-0.499164611101,0.189059242606,-1.32140552998,"(0.000872665, 0.0, 0.0, 0.0, 0.000872665, 0.0, 0.0, 0.0, 0.000872665)",-0.0129010042548,-0.256620663665,-0.428065302372,"(0.003, 0.0, 0.0, 0.0, 0.003, 0.0, 0.0, 0.0, 0.003)"
2022/01/11/19:03:43.162246,9754,1641924223,161839748,imu_iphone,-0.020457353727,-0.00755682426791,-0.283277386922,0.958790025576,"(0.00872665, 0.0, 0.0, 0.0, 0.00872665, 0.0, 0.0, 0.0, 0.00872665)",-0.492753595114,0.175345703959,-1.3540507555,"(0.000872665, 0.0, 0.0, 0.0, 0.000872665, 0.0, 0.0, 0.0, 0.000872665)",-0.0709074300528,-0.40269956924,-0.412891777754,"(0.003, 0.0, 0.0, 0.0, 0.003, 0.0, 0.0, 0.0, 0.003)"
2022/01/11/19:03:43.190938,9755,1641924223,190407032,imu_iphone,-0.0208896115432,-0.0139740714814,-0.302935472281,0.952679615133,"(0.00872665, 0.0, 0.0, 0.0, 0.00872665, 0.0, 0.0, 0.0, 0.00872665)",-0.484183996916,0.1555775702,-1.3654062748,"(0.000872665, 0.0, 0.0, 0.0, 0.000872665, 0.0, 0.0, 0.0, 0.000872665)",-0.122353206798,-0.558995753266,-0.412211746573,"(0.003, 0.0, 0.0, 0.0, 0.003, 0.0, 0.0, 0.0, 0.003)"
2022/01/11/19:03:43.221804,9756,1641924223,221297950,imu_iphone,-0.0221012895584,-0.0200713037138,-0.322524761686,0.946090087606,"(0.00872665, 0.0, 0.0, 0.0, 0.00872665, 0.0, 0.0, 0.0, 0.00872665)",-0.470795482397,0.13371925056,-1.36567723751,"(0.000872665, 0.0, 0.0, 0.0, 0.000872665, 0.0, 0.0, 0.0, 0.000872665)",-0.149659612533,-0.712109736353,-0.386469964385,"(0.003, 0.0, 0.0, 0.0, 0.003, 0.0, 0.0, 0.0, 0.003)"
2022/01/11/19:03:43.252833,9757,1641924223,252305281,imu_iphone,-0.0240449384278,-0.025824003737,-0.341787335177,0.93911467845,"(0.00872665, 0.0, 0.0, 0.0, 0.00872665, 0.0, 0.0, 0.0, 0.00872665)",-0.459877222776,0.114334985614,-1.34554088116,"(0.000872665, 0.0, 0.0, 0.0, 0.000872665, 0.0, 0.0, 0.0, 0.000872665)",-0.154801306799,-0.855306878239,-0.378441152573,"(0.003, 0.0, 0.0, 0.0, 0.003, 0.0, 0.0, 0.0, 0.003)"
2022/01/11/19:03:43.281344,9758,1641924223,280942026,imu_iphone,-0.0266613395966,-0.0311119943334,-0.36049687072,0.931860087664,"(0.00872665, 0.0, 0.0, 0.0, 0.00872665, 0.0, 0.0, 0.0, 0.00872665)",-0.440380692482,0.0937681645155,-1.30368709564,"(0.000872665, 0.0, 0.0, 0.0, 0.000872665, 0.0, 0.0, 0.0, 0.000872665)",-0.151131776981,-0.986870765314,-0.357462512255,"(0.003, 0.0, 0.0, 0.0, 0.003, 0.0, 0.0, 0.0, 0.003)"
2022/01/11/19:03:43.316176,9759,1641924223,315726426,imu_iphone,-0.0297841342564,-0.0359280470997,-0.378418089745,0.924457586984,"(0.00872665, 0.0, 0.0, 0.0, 0.00872665, 0.0, 0.0, 0.0, 0.00872665)",-0.421430021524,0.0766013562679,-1.25296247005,"(0.000872665, 0.0, 0.0, 0.0, 0.000872665, 0.0, 0.0, 0.0, 0.000872665)",-0.135030536782,-1.13399906337,-0.333874844313,"(0.003, 0.0, 0.0, 0.0, 0.003, 0.0, 0.0, 0.0, 0.003)"
2022/01/11/19:03:43.340652,9760,1641924223,340242028,imu_iphone,-0.0332964400841,-0.0402437256052,-0.39535479939,0.917042186721,"(0.00872665, 0.0, 0.0, 0.0, 0.00872665, 0.0, 0.0, 0.0, 0.00872665)",-0.401636064053,0.0627329275012,-1.18159043789,"(0.000872665, 0.0, 0.0, 0.0, 0.000872665, 0.0, 0.0, 0.0, 0.000872665)",-0.10347178001,-1.26676448017,-0.308597331047,"(0.003, 0.0, 0.0, 0.0, 0.003, 0.0, 0.0, 0.0, 0.003)"
2022/01/11/19:03:43.371627,9761,1641924223,370239252,imu_iphone,-0.0370610539495,-0.0440741156587,-0.411139939275,0.909751560011,"(0.00872665, 0.0, 0.0, 0.0, 0.00872665, 0.0, 0.0, 0.0, 0.00872665)",-0.377642452717,0.0513666197658,-1.10146355629,"(0.000872665, 0.0, 0.0, 0.0, 0.000872665, 0.0, 0.0, 0.0, 0.000872665)",-0.0638931467012,-1.4038870959,-0.294234230518,"(0.003, 0.0, 0.0, 0.0, 0.003, 0.0, 0.0, 0.0, 0.003)"
2022/01/11/19:03:43.399994,9762,1641924223,399751033,imu_iphone,-0.0409113926197,-0.0473809389031,-0.425665117288,0.902712862712,"(0.00872665, 0.0, 0.0, 0.0, 0.00872665, 0.0, 0.0, 0.0, 0.00872665)",-0.346056103706,0.0413758195937,-1.00993192196,"(0.000872665, 0.0, 0.0, 0.0, 0.000872665, 0.0, 0.0, 0.0, 0.000872665)",-0.019139983356,-1.5415980877,-0.268336912394,"(0.003, 0.0, 0.0, 0.0, 0.003, 0.0, 0.0, 0.0, 0.003)"
2022/01/11/19:03:43.429945,9763,1641924223,429558436,imu_iphone,-0.0446723441499,-0.0502336204553,-0.438834055972,0.896050018896,"(0.00872665, 0.0, 0.0, 0.0, 0.00872665, 0.0, 0.0, 0.0, 0.00872665)",-0.316853642464,0.0346101336181,-0.916139006615,"(0.000872665, 0.0, 0.0, 0.0, 0.000872665, 0.0, 0.0, 0.0, 0.000872665)",0.0248862249032,-1.67940205023,-0.252572234273,"(0.003, 0.0, 0.0, 0.0, 0.003, 0.0, 0.0, 0.0, 0.003)"
2022/01/11/19:03:43.459781,9764,1641924223,459409178,imu_iphone,-0.048182429354,-0.0526042912853,-0.450617508081,0.889862407033,"(0.00872665, 0.0, 0.0, 0.0, 0.00872665, 0.0, 0.0, 0.0, 0.00872665)",-0.277674287558,0.0333240032196,-0.816643834114,"(0.000872665, 0.0, 0.0, 0.0, 0.000872665, 0.0, 0.0, 0.0, 0.000872665)",0.0763143869117,-1.80470305771,-0.22004124999,"(0.003, 0.0, 0.0, 0.0, 0.003, 0.0, 0.0, 0.0, 0.003)"
2022/01/11/19:03:43.489368,9765,1641924223,489069545,imu_iphone,-0.0512896398697,-0.0545195949612,-0.46097311755,0.884251531807,"(0.00872665, 0.0, 0.0, 0.0, 0.00872665, 0.0, 0.0, 0.0, 0.00872665)",-0.232942447066,0.039492867887,-0.715687632561,"(0.000872665, 0.0, 0.0, 0.0, 0.000872665, 0.0, 0.0, 0.0, 0.000872665)",0.129538850114,-1.92975862831,-0.200043772459,"(0.003, 0.0, 0.0, 0.0, 0.003, 0.0, 0.0, 0.0, 0.003)"
2022/01/11/19:03:43.519305,9766,1641924223,518944954,imu_iphone,-0.0538482422862,-0.0559672023713,-0.469903776098,0.879294308107,"(0.00872665, 0.0, 0.0, 0.0, 0.00872665, 0.0, 0.0, 0.0, 0.00872665)",-0.18436229229,0.0430589653552,-0.612598836422,"(0.000872665, 0.0, 0.0, 0.0, 0.000872665, 0.0, 0.0, 0.0, 0.000872665)",0.155371702686,-2.04158180371,-0.174330641627,"(0.003, 0.0, 0.0, 0.0, 0.003, 0.0, 0.0, 0.0, 0.003)"
2022/01/11/19:03:43.548856,9767,1641924223,548517594,imu_iphone,-0.0557473379124,-0.0570011807114,-0.477402913362,0.875059745404,"(0.00872665, 0.0, 0.0, 0.0, 0.00872665, 0.0, 0.0, 0.0, 0.00872665)",-0.129178479314,0.0552311614156,-0.509958863258,"(0.000872665, 0.0, 0.0, 0.0, 0.000872665, 0.0, 0.0, 0.0, 0.000872665)",0.187288144603,-2.12664899737,-0.164240101576,"(0.003, 0.0, 0.0, 0.0, 0.003, 0.0, 0.0, 0.0, 0.003)"
2022/01/11/19:03:43.579234,9768,1641924223,578809908,imu_iphone,-0.0568596583608,-0.0575981847802,-0.483462196115,0.871615588026,"(0.00872665, 0.0, 0.0, 0.0, 0.00872665, 0.0, 0.0, 0.0, 0.00872665)",-0.071640484035,0.0661239027977,-0.405226171017,"(0.000872665, 0.0, 0.0, 0.0, 0.000872665, 0.0, 0.0, 0.0, 0.000872665)",0.187109804526,-2.20512067795,-0.134210556149,"(0.003, 0.0, 0.0, 0.0, 0.003, 0.0, 0.0, 0.0, 0.003)"
2022/01/11/19:03:43.608731,9769,1641924223,608341134,imu_iphone,-0.0571215214759,-0.0577509522007,-0.488099401411,0.868999961822,"(0.00872665, 0.0, 0.0, 0.0, 0.00872665, 0.0, 0.0, 0.0, 0.00872665)",-0.0121456803754,0.076733648777,-0.300006955862,"(0.000872665, 0.0, 0.0, 0.0, 0.000872665, 0.0, 0.0, 0.0, 0.000872665)",0.156655824333,-2.24193913311,-0.133794819117,"(0.003, 0.0, 0.0, 0.0, 0.003, 0.0, 0.0, 0.0, 0.003)"
2022/01/11/19:03:43.638686,9770,1641924223,638260463,imu_iphone,-0.0565236197104,-0.0574757566015,-0.491339834288,0.867229372808,"(0.00872665, 0.0, 0.0, 0.0, 0.00872665, 0.0, 0.0, 0.0, 0.00872665)",0.0531447641551,0.089302867651,-0.198042586446,"(0.000872665, 0.0, 0.0, 0.0, 0.000872665, 0.0, 0.0, 0.0, 0.000872665)",0.122373343147,-2.2501828301,-0.131539548039,"(0.003, 0.0, 0.0, 0.0, 0.003, 0.0, 0.0, 0.0, 0.003)"
2022/01/11/19:03:43.668403,9771,1641924223,667990028,imu_iphone,-0.0550585399351,-0.0567011467658,-0.49321515912,0.866309612062,"(0.00872665, 0.0, 0.0, 0.0, 0.00872665, 0.0, 0.0, 0.0, 0.00872665)",0.117749266326,0.0976802632213,-0.0990991815925,"(0.000872665, 0.0, 0.0, 0.0, 0.000872665, 0.0, 0.0, 0.0, 0.000872665)",0.0783312743157,-2.21460120723,-0.146954562664,"(0.003, 0.0, 0.0, 0.0, 0.003, 0.0, 0.0, 0.0, 0.003)"
2022/01/11/19:03:43.697823,9772,1641924223,697518116,imu_iphone,-0.0527723534714,-0.0553824934331,-0.493790298353,0.866209558584,"(0.00872665, 0.0, 0.0, 0.0, 0.00872665, 0.0, 0.0, 0.0, 0.00872665)",0.182653903961,0.104896552861,-0.00216370960698,"(0.000872665, 0.0, 0.0, 0.0, 0.000872665, 0.0, 0.0, 0.0, 0.000872665)",0.0182739741728,-2.14929570213,-0.156582003236,"(0.003, 0.0, 0.0, 0.0, 0.003, 0.0, 0.0, 0.0, 0.003)"
2022/01/11/19:03:43.730431,9773,1641924223,730052644,imu_iphone,-0.0497215424998,-0.053526400197,-0.4930949771,0.866902552916,"(0.00872665, 0.0, 0.0, 0.0, 0.00872665, 0.0, 0.0, 0.0, 0.00872665)",0.240364551544,0.105738155544,0.0911612287164,"(0.000872665, 0.0, 0.0, 0.0, 0.000872665, 0.0, 0.0, 0.0, 0.000872665)",-0.039633377865,-2.04213992044,-0.189740978479,"(0.003, 0.0, 0.0, 0.0, 0.003, 0.0, 0.0, 0.0, 0.003)"
2022/01/11/19:03:43.757665,9774,1641924223,757283235,imu_iphone,-0.0444963466821,-0.0483941154278,-0.491182139425,0.868572501656,"(0.00872665, 0.0, 0.0, 0.0, 0.00872665, 0.0, 0.0, 0.0, 0.00872665)",0.29651132226,0.103381693363,0.190403327346,"(0.000872665, 0.0, 0.0, 0.0, 0.000872665, 0.0, 0.0, 0.0, 0.000872665)",-0.092944124043,-1.8539157097,-0.216222433448,"(0.003, 0.0, 0.0, 0.0, 0.003, 0.0, 0.0, 0.0, 0.003)"
2022/01/11/19:03:43.787406,9775,1641924223,787037292,imu_iphone,-0.0393784363517,-0.0436917180474,-0.488009544268,0.870854211236,"(0.00872665, 0.0, 0.0, 0.0, 0.00872665, 0.0, 0.0, 0.0, 0.00872665)",0.349708616734,0.103315711021,0.286131620407,"(0.000872665, 0.0, 0.0, 0.0, 0.000872665, 0.0, 0.0, 0.0, 0.000872665)",-0.147874530684,-1.65854985595,-0.222207058668,"(0.003, 0.0, 0.0, 0.0, 0.003, 0.0, 0.0, 0.0, 0.003)"
2022/01/11/19:03:43.817024,9776,1641924223,816714529,imu_iphone,-0.0347026049637,-0.0401667949574,-0.48351140585,0.873727118844,"(0.00872665, 0.0, 0.0, 0.0, 0.00872665, 0.0, 0.0, 0.0, 0.00872665)",0.391259580851,0.0979001820087,0.380796611309,"(0.000872665, 0.0, 0.0, 0.0, 0.000872665, 0.0, 0.0, 0.0, 0.000872665)",-0.190611007623,-1.47850853115,-0.262451105118,"(0.003, 0.0, 0.0, 0.0, 0.003, 0.0, 0.0, 0.0, 0.003)"
2022/01/11/19:03:43.847018,9777,1641924223,846615210,imu_iphone,-0.0297440068785,-0.0361031777958,-0.477806705526,0.877218676706,"(0.00872665, 0.0, 0.0, 0.0, 0.00872665, 0.0, 0.0, 0.0, 0.00872665)",0.432379812002,0.092294216156,0.475044369698,"(0.000872665, 0.0, 0.0, 0.0, 0.000872665, 0.0, 0.0, 0.0, 0.000872665)",-0.219010842685,-1.26320542619,-0.305784820318,"(0.003, 0.0, 0.0, 0.0, 0.003, 0.0, 0.0, 0.0, 0.003)"
2022/01/11/19:03:43.877743,9778,1641924223,877428696,imu_iphone,-0.0246220656662,-0.0315572292248,-0.470856143932,0.881301530061,"(0.00872665, 0.0, 0.0, 0.0, 0.00872665, 0.0, 0.0, 0.0, 0.00872665)",0.456072598696,0.0884563699365,0.568939507008,"(0.000872665, 0.0, 0.0, 0.0, 0.000872665, 0.0, 0.0, 0.0, 0.000872665)",-0.263062650785,-1.05558680512,-0.320781174302,"(0.003, 0.0, 0.0, 0.0, 0.003, 0.0, 0.0, 0.0, 0.003)"
2022/01/11/19:03:43.906704,9779,1641924223,906316846,imu_iphone,-0.0194710748434,-0.0265350099145,-0.462703234432,0.88590207548,"(0.00872665, 0.0, 0.0, 0.0, 0.00872665, 0.0, 0.0, 0.0, 0.00872665)",0.478394836187,0.0751499161124,0.65767800808,"(0.000872665, 0.0, 0.0, 0.0, 0.000872665, 0.0, 0.0, 0.0, 0.000872665)",-0.311855618879,-0.816258148849,-0.349969305396,"(0.003, 0.0, 0.0, 0.0, 0.003, 0.0, 0.0, 0.0, 0.003)"
2022/01/11/19:03:43.936309,9780,1641924223,936055242,imu_iphone,-0.0144678853018,-0.0210674853239,-0.453338734434,0.890971847602,"(0.00872665, 0.0, 0.0, 0.0, 0.00872665, 0.0, 0.0, 0.0, 0.00872665)",0.493319272995,0.0609525702894,0.748929977417,"(0.000872665, 0.0, 0.0, 0.0, 0.000872665, 0.0, 0.0, 0.0, 0.000872665)",-0.364380060732,-0.611923762634,-0.330154845715,"(0.003, 0.0, 0.0, 0.0, 0.003, 0.0, 0.0, 0.0, 0.003)"
2022/01/11/19:03:43.966237,9781,1641924223,965944930,imu_iphone,-0.00978102342609,-0.0151886220168,-0.44274622987,0.896464953736,"(0.00872665, 0.0, 0.0, 0.0, 0.00872665, 0.0, 0.0, 0.0, 0.00872665)",0.499805033207,0.0445033460855,0.837090790272,"(0.000872665, 0.0, 0.0, 0.0, 0.000872665, 0.0, 0.0, 0.0, 0.000872665)",-0.404479680955,-0.385342950113,-0.330629054904,"(0.003, 0.0, 0.0, 0.0, 0.003, 0.0, 0.0, 0.0, 0.003)"
2022/01/11/19:03:43.996070,9782,1641924223,995704777,imu_iphone,-0.00559379567331,-0.00897053349248,-0.430997480758,0.902291200533,"(0.00872665, 0.0, 0.0, 0.0, 0.00872665, 0.0, 0.0, 0.0, 0.00872665)",0.500417649746,0.023386048153,0.917744517326,"(0.000872665, 0.0, 0.0, 0.0, 0.000872665, 0.0, 0.0, 0.0, 0.000872665)",-0.442062586471,-0.183354539908,-0.375965441465,"(0.003, 0.0, 0.0, 0.0, 0.003, 0.0, 0.0, 0.0, 0.003)"
2022/01/11/19:03:44.025704,9783,1641924224,25303027,imu_iphone,-0.00204302091006,-0.00244900324738,-0.418084826422,0.908402392315,"(0.00872665, 0.0, 0.0, 0.0, 0.00872665, 0.0, 0.0, 0.0, 0.00872665)",0.497527182102,-0.00106491707265,0.998015642166,"(0.000872665, 0.0, 0.0, 0.0, 0.000872665, 0.0, 0.0, 0.0, 0.000872665)",-0.447262624986,0.0346453831438,-0.355410724282,"(0.003, 0.0, 0.0, 0.0, 0.003, 0.0, 0.0, 0.0, 0.003)"
2022/01/11/19:03:44.055948,9784,1641924224,55720689,imu_iphone,0.000783202955198,0.0042614021589,-0.404023027578,0.914738552938,"(0.00872665, 0.0, 0.0, 0.0, 0.00872665, 0.0, 0.0, 0.0, 0.00872665)",0.482679367065,-0.0218156352639,1.06748139858,"(0.000872665, 0.0, 0.0, 0.0, 0.000872665, 0.0, 0.0, 0.0, 0.000872665)",-0.435031163469,0.208726229891,-0.360818814039,"(0.003, 0.0, 0.0, 0.0, 0.003, 0.0, 0.0, 0.0, 0.003)"
2022/01/11/19:03:44.085310,9785,1641924224,85033539,imu_iphone,0.00278594033091,0.0111083554194,-0.388938788016,0.921192413208,"(0.00872665, 0.0, 0.0, 0.0, 0.00872665, 0.0, 0.0, 0.0, 0.00872665)",0.473393559456,-0.0455648377538,1.1264102459,"(0.000872665, 0.0, 0.0, 0.0, 0.000872665, 0.0, 0.0, 0.0, 0.000872665)",-0.420189943425,0.365431243926,-0.345061152577,"(0.003, 0.0, 0.0, 0.0, 0.003, 0.0, 0.0, 0.0, 0.003)"
2022/01/11/19:03:44.115282,9786,1641924224,114914710,imu_iphone,0.00391827544071,0.0180134430724,-0.373001203143,0.927647705457,"(0.00872665, 0.0, 0.0, 0.0, 0.00872665, 0.0, 0.0, 0.0, 0.00872665)",0.458838969469,-0.0667092129588,1.1688888073,"(0.000872665, 0.0, 0.0, 0.0, 0.000872665, 0.0, 0.0, 0.0, 0.000872665)",-0.364004486762,0.505467929207,-0.355292610526,"(0.003, 0.0, 0.0, 0.0, 0.003, 0.0, 0.0, 0.0, 0.003)"
2022/01/11/19:03:44.145173,9787,1641924224,144863182,imu_iphone,0.00419632289842,0.0248899197023,-0.356355365332,0.934009494797,"(0.00872665, 0.0, 0.0, 0.0, 0.00872665, 0.0, 0.0, 0.0, 0.00872665)",0.440483421087,-0.0830100178719,1.20546162128,"(0.000872665, 0.0, 0.0, 0.0, 0.000872665, 0.0, 0.0, 0.0, 0.000872665)",-0.327992435731,0.672714267075,-0.3442103827,"(0.003, 0.0, 0.0, 0.0, 0.003, 0.0, 0.0, 0.0, 0.003)"
2022/01/11/19:03:44.175432,9788,1641924224,175059792,imu_iphone,0.00360850297819,0.0316385224066,-0.339118113996,0.940204705033,"(0.00872665, 0.0, 0.0, 0.0, 0.00872665, 0.0, 0.0, 0.0, 0.00872665)",0.424094259739,-0.102433621883,1.22251582146,"(0.000872665, 0.0, 0.0, 0.0, 0.000872665, 0.0, 0.0, 0.0, 0.000872665)",-0.26949922923,0.780828919038,-0.326457651258,"(0.003, 0.0, 0.0, 0.0, 0.003, 0.0, 0.0, 0.0, 0.003)"
2022/01/11/19:03:44.205076,9789,1641924224,204704626,imu_iphone,0.00219631501092,0.0382040199776,-0.321587154584,0.946106405783,"(0.00872665, 0.0, 0.0, 0.0, 0.00872665, 0.0, 0.0, 0.0, 0.00872665)",0.408097475767,-0.120507858694,1.22093713284,"(0.000872665, 0.0, 0.0, 0.0, 0.000872665, 0.0, 0.0, 0.0, 0.000872665)",-0.216603050642,0.892172111124,-0.327808942795,"(0.003, 0.0, 0.0, 0.0, 0.003, 0.0, 0.0, 0.0, 0.003)"
2022/01/11/19:03:44.239710,9790,1641924224,239417336,imu_iphone,4.12140267307e-05,0.0444965045552,-0.304019599367,0.951626051863,"(0.00872665, 0.0, 0.0, 0.0, 0.00872665, 0.0, 0.0, 0.0, 0.00872665)",0.389907777309,-0.129899591208,1.19834685326,"(0.000872665, 0.0, 0.0, 0.0, 0.000872665, 0.0, 0.0, 0.0, 0.000872665)",-0.153135489877,1.01664975755,-0.323404235244,"(0.003, 0.0, 0.0, 0.0, 0.003, 0.0, 0.0, 0.0, 0.003)"
2022/01/11/19:03:44.264296,9791,1641924224,263911860,imu_iphone,-0.00278706976633,0.0504655801815,-0.28664006733,0.956704201548,"(0.00872665, 0.0, 0.0, 0.0, 0.00872665, 0.0, 0.0, 0.0, 0.00872665)",0.373773753643,-0.14470526576,1.16494643688,"(0.000872665, 0.0, 0.0, 0.0, 0.000872665, 0.0, 0.0, 0.0, 0.000872665)",-0.0770142255351,1.12753430866,-0.296657316685,"(0.003, 0.0, 0.0, 0.0, 0.003, 0.0, 0.0, 0.0, 0.003)"
2022/01/11/19:03:44.294628,9792,1641924224,294289705,imu_iphone,-0.00618315830042,0.0560348073958,-0.269672417817,0.961300502435,"(0.00872665, 0.0, 0.0, 0.0, 0.00872665, 0.0, 0.0, 0.0, 0.00872665)",0.352001070976,-0.15665820241,1.11824142933,"(0.000872665, 0.0, 0.0, 0.0, 0.000872665, 0.0, 0.0, 0.0, 0.000872665)",0.0129790645838,1.24568088233,-0.306497011185,"(0.003, 0.0, 0.0, 0.0, 0.003, 0.0, 0.0, 0.0, 0.003)"
2022/01/11/19:03:44.323703,9793,1641924224,323354515,imu_iphone,-0.0100403810397,0.0611360559687,-0.253320034159,0.965396568102,"(0.00872665, 0.0, 0.0, 0.0, 0.00872665, 0.0, 0.0, 0.0, 0.00872665)",0.327608317137,-0.163868427277,1.05988442898,"(0.000872665, 0.0, 0.0, 0.0, 0.000872665, 0.0, 0.0, 0.0, 0.000872665)",0.0988517121971,1.35985712349,-0.271402022839,"(0.003, 0.0, 0.0, 0.0, 0.003, 0.0, 0.0, 0.0, 0.003)"
2022/01/11/19:03:44.353598,9794,1641924224,353258395,imu_iphone,-0.014227159388,0.0656974321189,-0.237722437541,0.969004374623,"(0.00872665, 0.0, 0.0, 0.0, 0.00872665, 0.0, 0.0, 0.0, 0.00872665)",0.299411147833,-0.169869124889,0.996277987957,"(0.000872665, 0.0, 0.0, 0.0, 0.000872665, 0.0, 0.0, 0.0, 0.000872665)",0.192803530768,1.4751653856,-0.256754162908,"(0.003, 0.0, 0.0, 0.0, 0.003, 0.0, 0.0, 0.0, 0.003)"
2022/01/11/19:03:44.395257,9795,1641924224,394930681,imu_iphone,-0.0186433632376,0.0696576862236,-0.223041756378,0.972138162336,"(0.00872665, 0.0, 0.0, 0.0, 0.00872665, 0.0, 0.0, 0.0, 0.00872665)",0.267165988684,-0.168209448457,0.924523472786,"(0.000872665, 0.0, 0.0, 0.0, 0.000872665, 0.0, 0.0, 0.0, 0.000872665)",0.305955632105,1.59070592836,-0.263383736014,"(0.003, 0.0, 0.0, 0.0, 0.003, 0.0, 0.0, 0.0, 0.003)"
2022/01/11/19:03:44.413162,9796,1641924224,412870045,imu_iphone,-0.0231312396254,0.072973289795,-0.209364672023,0.974836539548,"(0.00872665, 0.0, 0.0, 0.0, 0.00872665, 0.0, 0.0, 0.0, 0.00872665)",0.234202370048,-0.163527086377,0.853022098541,"(0.000872665, 0.0, 0.0, 0.0, 0.000872665, 0.0, 0.0, 0.0, 0.000872665)",0.413303275555,1.68703807533,-0.230236455202,"(0.003, 0.0, 0.0, 0.0, 0.003, 0.0, 0.0, 0.0, 0.003)"
2022/01/11/19:03:44.442892,9797,1641924224,442425640,imu_iphone,-0.0275869719545,0.0755918697072,-0.196752317281,0.977145513144,"(0.00872665, 0.0, 0.0, 0.0, 0.00872665, 0.0, 0.0, 0.0, 0.00872665)",0.191390216351,-0.15744137764,0.777538180351,"(0.000872665, 0.0, 0.0, 0.0, 0.000872665, 0.0, 0.0, 0.0, 0.000872665)",0.516075107306,1.77936531812,-0.219251291156,"(0.003, 0.0, 0.0, 0.0, 0.003, 0.0, 0.0, 0.0, 0.003)"
2022/01/11/19:03:44.476870,9798,1641924224,476469213,imu_iphone,-0.031860519375,0.0774668538018,-0.185306944017,0.979104248978,"(0.00872665, 0.0, 0.0, 0.0, 0.00872665, 0.0, 0.0, 0.0, 0.00872665)",0.1452781111,-0.143545672297,0.700057923794,"(0.000872665, 0.0, 0.0, 0.0, 0.000872665, 0.0, 0.0, 0.0, 0.000872665)",0.626195134968,1.8514578326,-0.184061577916,"(0.003, 0.0, 0.0, 0.0, 0.003, 0.0, 0.0, 0.0, 0.003)"
2022/01/11/19:03:44.502828,9799,1641924224,502220861,imu_iphone,-0.0358372702712,0.0785962355396,-0.175094655966,0.98075490479,"(0.00872665, 0.0, 0.0, 0.0, 0.00872665, 0.0, 0.0, 0.0, 0.00872665)",0.0962734222412,-0.125659137964,0.623373806477,"(0.000872665, 0.0, 0.0, 0.0, 0.000872665, 0.0, 0.0, 0.0, 0.000872665)",0.743001599908,1.91063311681,-0.169449970722,"(0.003, 0.0, 0.0, 0.0, 0.003, 0.0, 0.0, 0.0, 0.003)"
2022/01/11/19:03:44.532221,9800,1641924224,531895328,imu_iphone,-0.0393720427257,0.0789487550391,-0.166240991366,0.982130780049,"(0.00872665, 0.0, 0.0, 0.0, 0.00872665, 0.0, 0.0, 0.0, 0.00872665)",0.0469977594912,-0.101173773408,0.533670842648,"(0.000872665, 0.0, 0.0, 0.0, 0.000872665, 0.0, 0.0, 0.0, 0.000872665)",0.849125859663,1.9359484908,-0.152703545094,"(0.003, 0.0, 0.0, 0.0, 0.003, 0.0, 0.0, 0.0, 0.003)"
2022/01/11/19:03:44.562323,9801,1641924224,562031856,imu_iphone,-0.0423345683704,0.078559047873,-0.158867725542,0.983258514379,"(0.00872665, 0.0, 0.0, 0.0, 0.00872665, 0.0, 0.0, 0.0, 0.00872665)",-0.00471173226833,-0.0726284086704,0.439815193415,"(0.000872665, 0.0, 0.0, 0.0, 0.000872665, 0.0, 0.0, 0.0, 0.000872665)",0.918762689754,1.93457249478,-0.142626453638,"(0.003, 0.0, 0.0, 0.0, 0.003, 0.0, 0.0, 0.0, 0.003)"
2022/01/11/19:03:44.592033,9802,1641924224,591522157,imu_iphone,-0.0446040303933,0.0775014026073,-0.153158907178,0.984147530718,"(0.00872665, 0.0, 0.0, 0.0, 0.00872665, 0.0, 0.0, 0.0, 0.00872665)",-0.0567572526634,-0.0444365032017,0.334636837244,"(0.000872665, 0.0, 0.0, 0.0, 0.000872665, 0.0, 0.0, 0.0, 0.000872665)",0.964517225325,1.91299363777,-0.137122469544,"(0.003, 0.0, 0.0, 0.0, 0.003, 0.0, 0.0, 0.0, 0.003)"
